#timestamp, p_RS_R_x [m], p_RS_R_y [m], p_RS_R_z [m], q_RS_w [], q_RS_x [], q_RS_y [], q_RS_z [], v_RS_R_x [m s^-1], v_RS_R_y [m s^-1], v_RS_R_z [m s^-1], b_w_RS_S_x [rad s^-1], b_w_RS_S_y [rad s^-1], b_w_RS_S_z [rad s^-1], b_a_RS_S_x [m s^-2], b_a_RS_S_y [m s^-2], b_a_RS_S_z [m s^-2]
1403636580838555648,4.688319,-1.786938,0.783338,0.534108,-0.153029,-0.827383,-0.082152,-0.027876,0.033207,0.800006,-0.003172,0.021267,0.078502,-0.025266,0.136696,0.075593
1403636580843555328,4.688177,-1.786770,0.787350,0.534640,-0.152990,-0.826976,-0.082863,-0.029272,0.033992,0.804771,-0.003172,0.021267,0.078502,-0.025266,0.136696,0.075593
1403636580848555520,4.688028,-1.786598,0.791382,0.535178,-0.152945,-0.826562,-0.083605,-0.030043,0.034999,0.808240,-0.003172,0.021267,0.078502,-0.025266,0.136696,0.075593
1403636580853555456,4.687878,-1.786421,0.795429,0.535715,-0.152884,-0.826146,-0.084391,-0.030230,0.035853,0.810462,-0.003172,0.021267,0.078502,-0.025266,0.136696,0.075593
1403636580858555648,4.687727,-1.786240,0.799484,0.536244,-0.152821,-0.825731,-0.085213,-0.029905,0.036316,0.811406,-0.003172,0.021267,0.078502,-0.025266,0.136696,0.075593
1403636580863555328,4.687579,-1.786059,0.803540,0.536768,-0.152768,-0.825314,-0.086049,-0.029255,0.036089,0.811225,-0.003172,0.021267,0.078502,-0.025266,0.136696,0.075593
1403636580868555520,4.687435,-1.785881,0.807594,0.537289,-0.152725,-0.824896,-0.086890,-0.028469,0.035167,0.810357,-0.003172,0.021267,0.078502,-0.025266,0.136696,0.075593
1403636580873555456,4.687295,-1.785709,0.811642,0.537804,-0.152680,-0.824481,-0.087725,-0.027620,0.033777,0.808910,-0.003172,0.021267,0.078502,-0.025266,0.136696,0.075593
1403636580878555648,4.687158,-1.785544,0.815682,0.538317,-0.152627,-0.824067,-0.088553,-0.026953,0.031990,0.806951,-0.003172,0.021267,0.078502,-0.025266,0.136696,0.075593
1403636580883555328,4.687025,-1.785390,0.819712,0.538828,-0.152566,-0.823657,-0.089371,-0.026473,0.029821,0.805101,-0.003172,0.021267,0.078502,-0.025266,0.136696,0.075593
1403636580888555520,4.686893,-1.785247,0.823734,0.539337,-0.152496,-0.823250,-0.090170,-0.026116,0.027383,0.803612,-0.003172,0.021267,0.078502,-0.025266,0.136696,0.075593
1403636580893555456,4.686763,-1.785116,0.827749,0.539846,-0.152427,-0.822845,-0.090943,-0.026152,0.024730,0.802343,-0.003172,0.021267,0.078502,-0.025266,0.136696,0.075593
1403636580898555392,4.686631,-1.785000,0.831759,0.540360,-0.152367,-0.822438,-0.091677,-0.026659,0.021855,0.801509,-0.003172,0.021267,0.078502,-0.025266,0.136696,0.075593
1403636580903555328,4.686495,-1.784898,0.835765,0.540883,-0.152312,-0.822028,-0.092362,-0.027538,0.018902,0.801217,-0.003172,0.021267,0.078502,-0.025266,0.136696,0.075593
1403636580908555520,4.686355,-1.784810,0.839771,0.541412,-0.152266,-0.821619,-0.092986,-0.028684,0.016222,0.801161,-0.003172,0.021267,0.078502,-0.025266,0.136696,0.075593
1403636580913555456,4.686208,-1.784735,0.843777,0.541956,-0.152228,-0.821204,-0.093543,-0.030048,0.013868,0.801131,-0.003172,0.021267,0.078502,-0.025266,0.136696,0.075593
1403636580918555392,4.686055,-1.784671,0.847783,0.542516,-0.152194,-0.820784,-0.094039,-0.031259,0.011815,0.801125,-0.003172,0.021267,0.078502,-0.025266,0.136696,0.075593
1403636580923555584,4.685896,-1.784616,0.851787,0.543088,-0.152157,-0.820361,-0.094491,-0.032016,0.010125,0.800698,-0.003172,0.021267,0.078502,-0.025266,0.136696,0.075593
1403636580928555520,4.685735,-1.784569,0.855787,0.543677,-0.152105,-0.819932,-0.094913,-0.032448,0.008495,0.799357,-0.003172,0.021267,0.078502,-0.025266,0.136696,0.075593
1403636580933555712,4.685573,-1.784531,0.859778,0.544275,-0.152041,-0.819501,-0.095315,-0.032446,0.006842,0.797003,-0.003172,0.021267,0.078502,-0.025266,0.136696,0.075593
1403636580938555392,4.685412,-1.784501,0.863755,0.544867,-0.151968,-0.819076,-0.095706,-0.031824,0.005358,0.793636,-0.003172,0.021267,0.078502,-0.025266,0.136696,0.075593
1403636580943555584,4.685256,-1.784477,0.867713,0.545458,-0.151878,-0.818655,-0.096084,-0.030659,0.004013,0.789761,-0.003172,0.021267,0.078502,-0.025266,0.136696,0.075593
1403636580948555520,4.685107,-1.784460,0.871652,0.546050,-0.151766,-0.818238,-0.096455,-0.029104,0.002803,0.785874,-0.003172,0.021267,0.078502,-0.025266,0.136696,0.075593
1403636580953555456,4.684966,-1.784448,0.875572,0.546629,-0.151625,-0.817834,-0.096825,-0.027239,0.002019,0.781920,-0.003172,0.021267,0.078502,-0.025266,0.136696,0.075593
1403636580958555392,4.684834,-1.784438,0.879471,0.547190,-0.151458,-0.817446,-0.097201,-0.025312,0.001818,0.777626,-0.003172,0.021267,0.078502,-0.025266,0.136696,0.075593
1403636580963555584,4.684712,-1.784429,0.883348,0.547733,-0.151265,-0.817072,-0.097593,-0.023681,0.001961,0.773114,-0.003172,0.021267,0.078502,-0.025266,0.136696,0.075593
1403636580968555520,4.684597,-1.784418,0.887202,0.548263,-0.151059,-0.816707,-0.097991,-0.022440,0.002264,0.768599,-0.003172,0.021267,0.078502,-0.025266,0.136696,0.075593
1403636580973555456,4.684487,-1.784407,0.891033,0.548796,-0.150852,-0.816342,-0.098367,-0.021454,0.002415,0.763828,-0.003172,0.021267,0.078502,-0.025266,0.136696,0.075593
1403636580978555392,4.684381,-1.784396,0.894840,0.549339,-0.150658,-0.815973,-0.098696,-0.020822,0.001929,0.758770,-0.003172,0.021267,0.078502,-0.025266,0.136696,0.075593
1403636580983555584,4.684278,-1.784389,0.898620,0.549890,-0.150482,-0.815602,-0.098966,-0.020590,0.000786,0.753454,-0.003172,0.021267,0.078502,-0.025266,0.136696,0.075593
1403636580988555520,4.684175,-1.784389,0.902373,0.550455,-0.150307,-0.815228,-0.099180,-0.020654,-0.000657,0.747626,-0.003172,0.021267,0.078502,-0.025266,0.136696,0.075593
1403636580993555456,4.684071,-1.784396,0.906096,0.551031,-0.150133,-0.814850,-0.099350,-0.020946,-0.002288,0.741713,-0.003172,0.021267,0.078502,-0.025266,0.136696,0.075593
1403636580998555392,4.683965,-1.784412,0.909790,0.551607,-0.149970,-0.814476,-0.099470,-0.021151,-0.004025,0.736043,-0.003172,0.021267,0.078502,-0.025266,0.136696,0.075593
1403636581003555584,4.683859,-1.784436,0.913456,0.552176,-0.149831,-0.814108,-0.099537,-0.021227,-0.005509,0.730226,-0.003172,0.021267,0.078502,-0.025266,0.136696,0.075593
1403636581008555520,4.683753,-1.784466,0.917092,0.552739,-0.149731,-0.813742,-0.099555,-0.021328,-0.006698,0.724049,-0.003172,0.021267,0.078502,-0.025266,0.136696,0.075593
1403636581013555456,4.683646,-1.784502,0.920697,0.553298,-0.149681,-0.813376,-0.099524,-0.021491,-0.007571,0.718110,-0.003172,0.021267,0.078502,-0.025266,0.136696,0.075593
1403636581018555392,4.683538,-1.784541,0.924275,0.553858,-0.149685,-0.813003,-0.099450,-0.021649,-0.008079,0.713130,-0.003172,0.021267,0.078502,-0.025266,0.136696,0.075593
1403636581023555584,4.683429,-1.784582,0.927831,0.554435,-0.149725,-0.812615,-0.099351,-0.021861,-0.008390,0.709046,-0.003172,0.021267,0.078502,-0.025266,0.136696,0.075593
1403636581028555520,4.683320,-1.784624,0.931368,0.555032,-0.149770,-0.812212,-0.099247,-0.021830,-0.008526,0.705704,-0.003172,0.021267,0.078502,-0.025266,0.136696,0.075593
1403636581033555456,4.683212,-1.784666,0.934889,0.555635,-0.149790,-0.811806,-0.099162,-0.021203,-0.008121,0.702761,-0.003172,0.021267,0.078502,-0.025266,0.136696,0.075593
1403636581038555392,4.683109,-1.784704,0.938395,0.556238,-0.149766,-0.811404,-0.099111,-0.020138,-0.007013,0.699566,-0.003172,0.021267,0.078502,-0.025266,0.136696,0.075593
1403636581043555584,4.683012,-1.784735,0.941884,0.556830,-0.149687,-0.811014,-0.099109,-0.018765,-0.005465,0.696021,-0.003172,0.021267,0.078502,-0.025266,0.136696,0.075593
1403636581048555520,4.682922,-1.784757,0.945354,0.557393,-0.149563,-0.810644,-0.099152,-0.016988,-0.003476,0.692226,-0.003172,0.021267,0.078502,-0.025266,0.136696,0.075593
1403636581053555456,4.682843,-1.784769,0.948805,0.557929,-0.149423,-0.810293,-0.099225,-0.014987,-0.001071,0.688253,-0.003172,0.021267,0.078502,-0.025266,0.136696,0.075593
1403636581058555648,4.682772,-1.784769,0.952237,0.558449,-0.149276,-0.809950,-0.099325,-0.013233,0.001162,0.684302,-0.003172,0.021267,0.078502,-0.025266,0.136696,0.075593
1403636581063555584,4.682709,-1.784758,0.955649,0.558956,-0.149126,-0.809612,-0.099450,-0.011790,0.002961,0.680410,-0.003172,0.021267,0.078502,-0.025266,0.136696,0.075593
1403636581068555520,4.682653,-1.784740,0.959040,0.559453,-0.148970,-0.809280,-0.099592,-0.010781,0.004433,0.676279,-0.003172,0.021267,0.078502,-0.025266,0.136696,0.075593
1403636581073555456,4.682600,-1.784715,0.962410,0.559958,-0.148809,-0.808942,-0.099742,-0.010239,0.005589,0.671722,-0.003172,0.021267,0.078502,-0.025266,0.136696,0.075593
1403636581078555648,4.682550,-1.784685,0.965757,0.560474,-0.148665,-0.808592,-0.099900,-0.009877,0.006474,0.666812,-0.003172,0.021267,0.078502,-0.025266,0.136696,0.075593
1403636581083555584,4.682501,-1.784651,0.969077,0.560989,-0.148562,-0.808237,-0.100047,-0.009755,0.007133,0.661282,-0.003172,0.021267,0.078502,-0.025266,0.136696,0.075593
1403636581088555520,4.681865,-1.784123,0.972464,0.561497,-0.148517,-0.807856,-0.100164,-0.016908,0.013274,0.656107,-0.003172,0.021267,0.078502,-0.025266,0.136696,0.075594
1403636581093555456,4.681779,-1.784057,0.975728,0.562019,-0.148562,-0.807476,-0.100238,-0.017519,0.013286,0.649649,-0.003172,0.021267,0.078502,-0.025266,0.136696,0.075594
1403636581098555648,4.681690,-1.783991,0.978961,0.562553,-0.148696,-0.807075,-0.100272,-0.018157,0.013082,0.643497,-0.003172,0.021267,0.078502,-0.025266,0.136696,0.075594
1403636581103555328,4.681598,-1.783925,0.982164,0.563113,-0.148903,-0.806645,-0.100283,-0.018736,0.013117,0.637814,-0.003172,0.021267,0.078502,-0.025266,0.136696,0.075594
1403636581108555520,4.681503,-1.783859,0.985340,0.563705,-0.149170,-0.806183,-0.100278,-0.019178,0.013237,0.632558,-0.003172,0.021267,0.078502,-0.025266,0.136696,0.075594
1403636581113555456,4.681407,-1.783794,0.988490,0.564328,-0.149483,-0.805690,-0.100275,-0.019384,0.013121,0.627241,-0.003172,0.021267,0.078502,-0.025266,0.136696,0.075594
1403636581118555648,4.681310,-1.783729,0.991611,0.564973,-0.149810,-0.805178,-0.100271,-0.019292,0.012809,0.621330,-0.003172,0.021267,0.078502,-0.025266,0.136696,0.075594
1403636581123555328,4.681215,-1.783666,0.994702,0.565630,-0.150136,-0.804659,-0.100255,-0.018687,0.012396,0.615082,-0.003172,0.021267,0.078502,-0.025266,0.136696,0.075594
1403636581128555520,4.681125,-1.783604,0.997763,0.566296,-0.150447,-0.804135,-0.100233,-0.017381,0.012103,0.609309,-0.003172,0.021267,0.078502,-0.025266,0.136696,0.075594
1403636581133555456,4.681043,-1.783544,1.000796,0.566964,-0.150733,-0.803615,-0.100204,-0.015375,0.012080,0.603856,-0.003172,0.021267,0.078502,-0.025266,0.136696,0.075594
1403636581138555648,4.680973,-1.783483,1.003802,0.567634,-0.150985,-0.803099,-0.100172,-0.012814,0.012248,0.598424,-0.003172,0.021267,0.078502,-0.025266,0.136696,0.075594
1403636581143555328,4.680916,-1.783421,1.006781,0.568303,-0.151190,-0.802591,-0.100146,-0.009829,0.012743,0.593188,-0.003172,0.021267,0.078502,-0.025266,0.136696,0.075594
1403636581148555520,4.680875,-1.783355,1.009733,0.568963,-0.151336,-0.802097,-0.100137,-0.006701,0.013688,0.587907,-0.003172,0.021267,0.078502,-0.025266,0.136696,0.075594
1403636581153555456,4.680848,-1.783284,1.012659,0.569617,-0.151419,-0.801616,-0.100146,-0.003833,0.014769,0.582235,-0.003172,0.021267,0.078502,-0.025266,0.136696,0.075594
1403636581158555392,4.680836,-1.783207,1.015555,0.570258,-0.151443,-0.801154,-0.100169,-0.001257,0.015950,0.576209,-0.003172,0.021267,0.078502,-0.025266,0.136696,0.075594
1403636581163555328,4.680835,-1.783124,1.018420,0.570891,-0.151428,-0.800702,-0.100201,0.001120,0.017280,0.569879,-0.003172,0.021267,0.078502,-0.025266,0.136696,0.075594
1403636581168555520,4.680846,-1.783034,1.021253,0.571525,-0.151399,-0.800251,-0.100237,0.003345,0.018518,0.563118,-0.003172,0.021267,0.078502,-0.025266,0.136696,0.075594
1403636581173555712,4.680868,-1.782939,1.024051,0.572164,-0.151375,-0.799794,-0.100280,0.005477,0.019580,0.556176,-0.003172,0.021267,0.078502,-0.025266,0.136696,0.075594
1403636581178555392,4.680901,-1.782839,1.026814,0.572808,-0.151365,-0.799328,-0.100331,0.007421,0.020415,0.549200,-0.003172,0.021267,0.078502,-0.025266,0.136696,0.075594
1403636581183555584,4.680686,-1.782507,1.029575,0.573457,-0.151376,-0.798846,-0.100392,0.003669,0.025823,0.542408,-0.003172,0.021267,0.078502,-0.025266,0.136696,0.075594
1403636581188555520,4.680707,-1.782378,1.032268,0.574112,-0.151422,-0.798358,-0.100459,0.004898,0.025845,0.534598,-0.003172,0.021267,0.078502,-0.025266,0.136696,0.075594
1403636581193555712,4.680734,-1.782250,1.034921,0.574767,-0.151518,-0.797860,-0.100531,0.005760,0.025426,0.526708,-0.003172,0.021267,0.078502,-0.025266,0.136696,0.075594
1403636581198555392,4.680764,-1.782124,1.037535,0.575420,-0.151674,-0.797351,-0.100595,0.006245,0.024775,0.518924,-0.003172,0.021267,0.078502,-0.025266,0.136696,0.075594
1403636581203555584,4.680795,-1.782003,1.040111,0.576086,-0.151882,-0.796825,-0.100650,0.006355,0.023789,0.511585,-0.003172,0.021267,0.078502,-0.025266,0.136696,0.075594
1403636581208555520,4.680827,-1.781887,1.042653,0.576773,-0.152130,-0.796276,-0.100689,0.006337,0.022384,0.505015,-0.003172,0.021267,0.078502,-0.025266,0.136696,0.075594
1403636581213555456,4.680859,-1.781779,1.045163,0.577486,-0.152410,-0.795704,-0.100706,0.006551,0.020837,0.499027,-0.003172,0.021267,0.078502,-0.025266,0.136696,0.075594
1403636581218555392,4.680894,-1.781678,1.047643,0.578238,-0.152704,-0.795102,-0.100702,0.007223,0.019408,0.493072,-0.003172,0.021267,0.078502,-0.025266,0.136696,0.075594
1403636581223555584,4.680933,-1.781585,1.050093,0.579021,-0.152985,-0.794481,-0.100682,0.008627,0.018184,0.486872,-0.003172,0.021267,0.078502,-0.025266,0.136696,0.075594
1403636581228555520,4.680982,-1.781496,1.052511,0.579807,-0.153233,-0.793863,-0.100662,0.010715,0.017246,0.480250,-0.003172,0.021267,0.078502,-0.025266,0.136696,0.075594
1403636581233555456,4.681042,-1.781412,1.054894,0.580579,-0.153443,-0.793261,-0.100644,0.013264,0.016494,0.472871,-0.003172,0.021267,0.078502,-0.025266,0.136696,0.075594
1403636581238555392,4.681037,-1.781250,1.057242,0.581324,-0.153611,-0.792679,-0.100625,0.013346,0.018560,0.464929,-0.003172,0.021267,0.078502,-0.025266,0.136696,0.075594
1403636581243555584,4.681111,-1.781159,1.059546,0.582042,-0.153728,-0.792132,-0.100608,0.016326,0.017586,0.456704,-0.003172,0.021267,0.078502,-0.025266,0.136696,0.075594
1403636581248555520,4.681201,-1.781074,1.061809,0.582736,-0.153785,-0.791613,-0.100594,0.019358,0.016547,0.448540,-0.003172,0.021267,0.078502,-0.025266,0.136696,0.075594
1403636581253555456,4.681305,-1.780995,1.064031,0.583419,-0.153772,-0.791115,-0.100582,0.022327,0.015264,0.440428,-0.003172,0.021267,0.078502,-0.025266,0.136696,0.075594
1403636581258555392,4.681424,-1.780921,1.066213,0.584095,-0.153689,-0.790632,-0.100582,0.025209,0.014065,0.432061,-0.003172,0.021267,0.078502,-0.025266,0.136696,0.075594
1403636581263555584,4.681557,-1.780853,1.068350,0.584769,-0.153550,-0.790160,-0.100596,0.027988,0.013199,0.422739,-0.003172,0.021267,0.078502,-0.025266,0.136696,0.075594
1403636581268555520,4.681703,-1.780789,1.070436,0.585439,-0.153366,-0.789696,-0.100628,0.030670,0.012495,0.411954,-0.003172,0.021267,0.078502,-0.025266,0.136696,0.075594
1403636581273555456,4.681864,-1.780728,1.072467,0.586092,-0.153154,-0.789245,-0.100685,0.033436,0.011759,0.400104,-0.003172,0.021267,0.078502,-0.025266,0.136696,0.075594
1403636581278555392,4.682038,-1.780671,1.074435,0.586716,-0.152929,-0.788814,-0.100773,0.036191,0.010940,0.387470,-0.003172,0.021267,0.078502,-0.025266,0.136696,0.075594
1403636581283555584,4.682175,-1.780559,1.076336,0.587316,-0.152703,-0.788391,-0.100902,0.036552,0.012702,0.373743,-0.003172,0.021267,0.078502,-0.025266,0.136696,0.075594
1403636581288555264,4.682364,-1.780499,1.078169,0.587898,-0.152498,-0.787976,-0.101062,0.038866,0.011436,0.359486,-0.003172,0.021267,0.078502,-0.025266,0.136696,0.075594
1403636581293555456,4.682563,-1.780445,1.079930,0.588472,-0.152327,-0.787558,-0.101243,0.040923,0.009897,0.344597,-0.003172,0.021267,0.078502,-0.025266,0.136696,0.075594
1403636581298555648,4.682772,-1.780401,1.081614,0.589045,-0.152188,-0.787133,-0.101429,0.042289,0.007944,0.328977,-0.003172,0.021267,0.078502,-0.025266,0.136696,0.075594
1403636581303555584,4.682984,-1.780368,1.083218,0.589606,-0.152082,-0.786710,-0.101612,0.042773,0.005308,0.312974,-0.003172,0.021267,0.078502,-0.025266,0.136696,0.075594
1403636581308555520,4.683198,-1.780348,1.084744,0.590160,-0.152009,-0.786287,-0.101781,0.042784,0.002415,0.297093,-0.003172,0.021267,0.078502,-0.025266,0.136696,0.075594
1403636581313555456,4.683411,-1.780343,1.086189,0.590707,-0.151962,-0.785867,-0.101922,0.042515,-0.000329,0.281210,-0.003172,0.021267,0.078502,-0.025266,0.136696,0.075594
1403636581318555648,4.683623,-1.780350,1.087556,0.591244,-0.151940,-0.785453,-0.102034,0.042037,-0.002643,0.265288,-0.003172,0.021267,0.078502,-0.025266,0.136696,0.075594
1403636581323555584,4.683832,-1.780368,1.088842,0.591765,-0.151939,-0.785050,-0.102124,0.041657,-0.004160,0.249368,-0.003172,0.021267,0.078502,-0.025266,0.136696,0.075594
1403636581328555520,4.684040,-1.780390,1.090049,0.592254,-0.151948,-0.784670,-0.102198,0.041529,-0.004854,0.233272,-0.003172,0.021267,0.078502,-0.025266,0.136696,0.075594
1403636581333555456,4.684202,-1.780350,1.091162,0.592715,-0.151957,-0.784308,-0.102274,0.039540,-0.002245,0.216349,-0.003172,0.021267,0.078502,-0.025266,0.136696,0.075594
1403636581338555648,4.684400,-1.780362,1.092203,0.593141,-0.151962,-0.783972,-0.102363,0.039454,-0.002211,0.199876,-0.003172,0.021267,0.078502,-0.025266,0.136696,0.075594
1403636581343555328,4.684597,-1.780372,1.093160,0.593533,-0.151954,-0.783664,-0.102465,0.039580,-0.002000,0.183195,-0.003172,0.021267,0.078502,-0.025266,0.136696,0.075594
1403636581348555520,4.684796,-1.780381,1.094034,0.593892,-0.151928,-0.783382,-0.102587,0.039949,-0.001520,0.166088,-0.003172,0.021267,0.078502,-0.025266,0.136696,0.075594
1403636581353555456,4.684997,-1.780386,1.094820,0.594214,-0.151877,-0.783128,-0.102736,0.040604,-0.000572,0.148503,-0.003172,0.021267,0.078502,-0.025266,0.136696,0.075594
1403636581358555648,4.685203,-1.780385,1.095518,0.594494,-0.151807,-0.782905,-0.102924,0.041661,0.001083,0.130566,-0.003172,0.021267,0.078502,-0.025266,0.136696,0.075594
1403636581363555328,4.685415,-1.780374,1.096125,0.594724,-0.151730,-0.782714,-0.103158,0.042990,0.003141,0.112242,-0.003172,0.021267,0.078502,-0.025266,0.136696,0.075594
1403636581368555520,4.685633,-1.780354,1.096640,0.594906,-0.151649,-0.782554,-0.103438,0.044293,0.005039,0.093797,-0.003172,0.021267,0.078502,-0.025266,0.136696,0.075594
1403636581373555456,4.685857,-1.780325,1.097063,0.595046,-0.151567,-0.782422,-0.103756,0.045406,0.006539,0.075539,-0.003172,0.021267,0.078502,-0.025266,0.136696,0.075594
1403636581378555648,4.686087,-1.780290,1.097395,0.595150,-0.151473,-0.782314,-0.104106,0.046347,0.007474,0.057340,-0.003172,0.021267,0.078502,-0.025266,0.136696,0.075594
1403636581383555328,4.686321,-1.780252,1.097637,0.595221,-0.151364,-0.782232,-0.104477,0.047287,0.007799,0.039318,-0.003172,0.021267,0.078502,-0.025266,0.136696,0.075594
1403636581388555520,4.686513,-1.780137,1.097762,0.595268,-0.151253,-0.782167,-0.104852,0.046659,0.010528,0.020404,-0.003172,0.021267,0.078502,-0.025266,0.136697,0.075594
1403636581393555456,4.686749,-1.780085,1.097819,0.595288,-0.151157,-0.782121,-0.105217,0.047822,0.010393,0.002402,-0.003172,0.021267,0.078502,-0.025266,0.136697,0.075594
1403636581398555392,4.686991,-1.780033,1.097785,0.595284,-0.151076,-0.782092,-0.105571,0.048842,0.010242,-0.015957,-0.003172,0.021267,0.078502,-0.025266,0.136697,0.075594
1403636581403555328,4.687236,-1.779983,1.097659,0.595257,-0.151007,-0.782081,-0.105909,0.049484,0.009709,-0.034517,-0.003172,0.021267,0.078502,-0.025266,0.136697,0.075594
1403636581408555520,4.687484,-1.779937,1.097440,0.595196,-0.150952,-0.782095,-0.106219,0.049666,0.008874,-0.053140,-0.003172,0.021267,0.078502,-0.025266,0.136697,0.075594
1403636581413555456,4.687732,-1.779895,1.097128,0.595106,-0.150905,-0.782135,-0.106498,0.049413,0.007948,-0.071800,-0.003172,0.021267,0.078502,-0.025266,0.136697,0.075594
1403636581418555392,4.687977,-1.779857,1.096723,0.594986,-0.150856,-0.782202,-0.106748,0.048611,0.007070,-0.090182,-0.003172,0.021267,0.078502,-0.025266,0.136697,0.075594
1403636581423555584,4.688217,-1.779823,1.096227,0.594833,-0.150800,-0.782299,-0.106970,0.047368,0.006395,-0.108295,-0.003172,0.021267,0.078502,-0.025266,0.136697,0.075594
1403636581428555520,4.688450,-1.779792,1.095640,0.594656,-0.150730,-0.782419,-0.107170,0.045938,0.006085,-0.126410,-0.003172,0.021267,0.078502,-0.025266,0.136697,0.075594
1403636581433555712,4.688676,-1.779762,1.094963,0.594465,-0.150635,-0.782557,-0.107362,0.044481,0.006077,-0.144394,-0.003172,0.021267,0.078502,-0.025266,0.136697,0.075594
1403636581438555392,4.688896,-1.779731,1.094196,0.594253,-0.150505,-0.782715,-0.107564,0.043322,0.006201,-0.162186,-0.003172,0.021267,0.078502,-0.025266,0.136697,0.075594
1403636581443555584,4.689110,-1.779700,1.093341,0.594009,-0.150351,-0.782899,-0.107791,0.042477,0.006400,-0.180072,-0.003172,0.021267,0.078502,-0.025266,0.136697,0.075594
1403636581448555520,4.689322,-1.779667,1.092395,0.593737,-0.150182,-0.783103,-0.108036,0.042008,0.006472,-0.198140,-0.003172,0.021267,0.078502,-0.025266,0.136697,0.075594
1403636581453555456,4.689532,-1.779635,1.091360,0.593440,-0.150000,-0.783329,-0.108291,0.042180,0.006468,-0.216007,-0.003172,0.021267,0.078502,-0.025266,0.136697,0.075594
1403636581458555392,4.689745,-1.779602,1.090236,0.593106,-0.149811,-0.783580,-0.108559,0.042909,0.006597,-0.233588,-0.003172,0.021267,0.078502,-0.025266,0.136697,0.075594
1403636581463555584,4.689962,-1.779569,1.089025,0.592740,-0.149625,-0.783855,-0.108835,0.044124,0.006620,-0.250811,-0.003172,0.021267,0.078502,-0.025266,0.136697,0.075594
1403636581468555520,4.690187,-1.779537,1.087729,0.592347,-0.149448,-0.784147,-0.109117,0.045643,0.006217,-0.267347,-0.003172,0.021267,0.078502,-0.025266,0.136697,0.075594
1403636581473555456,4.690419,-1.779508,1.086353,0.591933,-0.149276,-0.784453,-0.109400,0.047075,0.005470,-0.283243,-0.003172,0.021267,0.078502,-0.025266,0.136697,0.075594
1403636581478555392,4.690656,-1.779483,1.084898,0.591505,-0.149113,-0.784769,-0.109672,0.048094,0.004551,-0.298709,-0.003172,0.021267,0.078502,-0.025266,0.136697,0.075594
1403636581483555584,4.690898,-1.779463,1.083367,0.591062,-0.148967,-0.785095,-0.109926,0.048574,0.003377,-0.313602,-0.003172,0.021267,0.078502,-0.025266,0.136697,0.075594
1403636581488555520,4.691141,-1.779449,1.081764,0.590601,-0.148844,-0.785434,-0.110148,0.048625,0.002214,-0.327877,-0.003172,0.021267,0.078502,-0.025266,0.136697,0.075594
1403636581493555456,4.691383,-1.779440,1.080089,0.590123,-0.148750,-0.785788,-0.110323,0.048090,0.001388,-0.341955,-0.003172,0.021267,0.078502,-0.025266,0.136697,0.075594
1403636581498555392,4.691620,-1.779434,1.078345,0.589638,-0.148689,-0.786145,-0.110451,0.046832,0.001109,-0.355807,-0.003172,0.021267,0.078502,-0.025266,0.136697,0.075594
1403636581503555584,4.691850,-1.779427,1.076532,0.589147,-0.148677,-0.786504,-0.110535,0.045027,0.001533,-0.369363,-0.003172,0.021267,0.078502,-0.025266,0.136697,0.075594
1403636581508555520,4.692069,-1.779417,1.074651,0.588648,-0.148714,-0.786865,-0.110576,0.042622,0.002618,-0.382953,-0.003172,0.021267,0.078502,-0.025266,0.136697,0.075594
1403636581513555456,4.692274,-1.779401,1.072702,0.588149,-0.148792,-0.787221,-0.110592,0.039503,0.003910,-0.396709,-0.003172,0.021267,0.078502,-0.025266,0.136697,0.075594
1403636581518555392,4.692463,-1.779379,1.070684,0.587651,-0.148906,-0.787572,-0.110590,0.035977,0.004829,-0.410442,-0.003172,0.021267,0.078502,-0.025266,0.136697,0.075594
1403636581523555584,4.692634,-1.779354,1.068597,0.587155,-0.149044,-0.787919,-0.110571,0.032248,0.005257,-0.424149,-0.003172,0.021267,0.078502,-0.025266,0.136697,0.075594
1403636581528555520,4.692785,-1.779328,1.066442,0.586668,-0.149195,-0.788259,-0.110529,0.028472,0.004913,-0.438010,-0.003172,0.021267,0.078502,-0.025266,0.136697,0.075594
1403636581533555456,4.692920,-1.779306,1.064217,0.586195,-0.149360,-0.788591,-0.110454,0.025359,0.003830,-0.451851,-0.003172,0.021267,0.078502,-0.025266,0.136697,0.075594
1403636581538555392,4.693041,-1.779291,1.061923,0.585730,-0.149543,-0.788916,-0.110346,0.023195,0.002380,-0.465737,-0.003172,0.021267,0.078502,-0.025266,0.136697,0.075594
1403636581543555584,4.693154,-1.779283,1.059560,0.585268,-0.149762,-0.789238,-0.110206,0.021778,0.000601,-0.479707,-0.003172,0.021267,0.078502,-0.025266,0.136697,0.075594
1403636581548555520,4.693261,-1.779286,1.057129,0.584792,-0.150013,-0.789566,-0.110042,0.021011,-0.001463,-0.492785,-0.003172,0.021267,0.078502,-0.025266,0.136697,0.075594
1403636581553555456,4.693365,-1.779298,1.054636,0.584294,-0.150278,-0.789909,-0.109864,0.020852,-0.003355,-0.504307,-0.003172,0.021267,0.078502,-0.025266,0.136697,0.075594
1403636581558555648,4.693471,-1.779317,1.052089,0.583783,-0.150546,-0.790261,-0.109685,0.021226,-0.004516,-0.514504,-0.003172,0.021267,0.078502,-0.025266,0.136697,0.075594
1403636581563555584,4.693578,-1.779340,1.049495,0.583266,-0.150805,-0.790619,-0.109505,0.021919,-0.004687,-0.523210,-0.003172,0.021267,0.078502,-0.025266,0.136697,0.075594
1403636581568555520,4.693690,-1.779362,1.046861,0.582740,-0.151053,-0.790986,-0.109315,0.022745,-0.003901,-0.530325,-0.003172,0.021267,0.078502,-0.025266,0.136697,0.075594
1403636581573555456,4.693805,-1.779378,1.044194,0.582209,-0.151288,-0.791360,-0.109115,0.023291,-0.002524,-0.536372,-0.003172,0.021267,0.078502,-0.025266,0.136697,0.075594
1403636581578555648,4.693922,-1.779387,1.041499,0.581684,-0.151505,-0.791733,-0.108909,0.023326,-0.001234,-0.541533,-0.003172,0.021267,0.078502,-0.025266,0.136697,0.075594
1403636581583555584,4.694037,-1.779391,1.038780,0.581173,-0.151689,-0.792103,-0.108689,0.022930,-0.000481,-0.546096,-0.003172,0.021267,0.078502,-0.025266,0.136697,0.075594
1403636581588555520,4.694150,-1.779393,1.036038,0.580679,-0.151823,-0.792474,-0.108441,0.022214,-0.000268,-0.550798,-0.003172,0.021267,0.078502,-0.025266,0.136697,0.075594
1403636581593555456,4.694259,-1.779395,1.033270,0.580200,-0.151899,-0.792846,-0.108176,0.021405,-0.000382,-0.556328,-0.003172,0.021267,0.078502,-0.025266,0.136697,0.075594
1403636581598555648,4.694364,-1.779397,1.030472,0.579735,-0.151923,-0.793219,-0.107909,0.020627,-0.000588,-0.562765,-0.003172,0.021267,0.078502,-0.025266,0.136697,0.075594
1403636581603555328,4.694466,-1.779401,1.027641,0.579279,-0.151914,-0.793591,-0.107640,0.019983,-0.000731,-0.569818,-0.003172,0.021267,0.078502,-0.025266,0.136697,0.075594
1403636581608555520,4.694564,-1.779405,1.024772,0.578826,-0.151888,-0.793963,-0.107364,0.019333,-0.001152,-0.577596,-0.003172,0.021267,0.078502,-0.025266,0.136697,0.075594
1403636581613555456,4.694659,-1.779414,1.021864,0.578389,-0.151865,-0.794326,-0.107068,0.018692,-0.002251,-0.585787,-0.003172,0.021267,0.078502,-0.025266,0.136697,0.075594
1403636581618555648,4.694752,-1.779429,1.018915,0.577973,-0.151874,-0.794672,-0.106740,0.018206,-0.003661,-0.593856,-0.003172,0.021267,0.078502,-0.025266,0.136697,0.075594
1403636581623555328,4.694842,-1.779450,1.015926,0.577585,-0.151922,-0.794992,-0.106389,0.017954,-0.004880,-0.601669,-0.003172,0.021267,0.078502,-0.025266,0.136697,0.075594
1403636581628555520,4.694933,-1.779476,1.012900,0.577225,-0.152014,-0.795284,-0.106034,0.018312,-0.005479,-0.608824,-0.003172,0.021267,0.078502,-0.025266,0.136697,0.075594
1403636581633555456,4.695027,-1.779502,1.009840,0.576886,-0.152168,-0.795546,-0.105692,0.019365,-0.004959,-0.615077,-0.003172,0.021267,0.078502,-0.025266,0.136697,0.075594
1403636581638555648,4.695128,-1.779522,1.006751,0.576559,-0.152388,-0.795783,-0.105375,0.020994,-0.003163,-0.620701,-0.003172,0.021267,0.078502,-0.025266,0.136697,0.075594
1403636581643555328,4.695237,-1.779532,1.003635,0.576227,-0.152671,-0.796007,-0.105091,0.022783,-0.000603,-0.625544,-0.003172,0.021267,0.078502,-0.025266,0.136697,0.075594
1403636581648555520,4.695355,-1.779528,1.000499,0.575877,-0.152997,-0.796229,-0.104852,0.024243,0.002196,-0.628869,-0.003172,0.021267,0.078502,-0.025266,0.136697,0.075594
1403636581653555456,4.695478,-1.779510,0.997351,0.575508,-0.153327,-0.796457,-0.104669,0.025142,0.004951,-0.630474,-0.003172,0.021267,0.078502,-0.025266,0.136697,0.075594
1403636581658555392,4.695604,-1.779479,0.994197,0.575135,-0.153620,-0.796686,-0.104551,0.025272,0.007321,-0.630743,-0.003172,0.021267,0.078502,-0.025266,0.136697,0.075594
1403636581663555328,4.695730,-1.779438,0.991046,0.574771,-0.153847,-0.796912,-0.104490,0.024974,0.009269,-0.630019,-0.003172,0.021267,0.078502,-0.025266,0.136697,0.075594
1403636581668555520,4.695854,-1.779387,0.987898,0.574421,-0.153988,-0.797140,-0.104467,0.024782,0.011187,-0.628921,-0.003172,0.021267,0.078502,-0.025266,0.136697,0.075594
1403636581673555712,4.695978,-1.779326,0.984755,0.574094,-0.154033,-0.797366,-0.104479,0.024880,0.013137,-0.628329,-0.003172,0.021267,0.078502,-0.025266,0.136697,0.075594
1403636581678555392,4.696104,-1.779256,0.981613,0.573778,-0.153985,-0.797596,-0.104530,0.025255,0.014740,-0.628476,-0.003172,0.021267,0.078502,-0.025266,0.136697,0.075594
1403636581683555584,4.696232,-1.779180,0.978468,0.573463,-0.153852,-0.797837,-0.104616,0.025891,0.015664,-0.629474,-0.003172,0.021267,0.078502,-0.025266,0.136697,0.075594
1403636581688555520,4.696363,-1.779103,0.975315,0.573154,-0.153646,-0.798086,-0.104713,0.026520,0.015325,-0.631655,-0.003172,0.021267,0.078502,-0.025266,0.136697,0.075594
1403636581693555712,4.696497,-1.779030,0.972149,0.572852,-0.153387,-0.798342,-0.104795,0.027135,0.013572,-0.634764,-0.003172,0.021267,0.078502,-0.025266,0.136697,0.075594
1403636581698555392,4.696634,-1.778969,0.968966,0.572556,-0.153101,-0.798605,-0.104831,0.027809,0.011127,-0.638551,-0.003172,0.021267,0.078502,-0.025266,0.136697,0.075594
1403636581703555584,4.696775,-1.778919,0.965762,0.572283,-0.152824,-0.798858,-0.104797,0.028494,0.008759,-0.643069,-0.003172,0.021267,0.078502,-0.025266,0.136697,0.075594
1403636581708555520,4.696919,-1.778880,0.962535,0.572047,-0.152603,-0.799086,-0.104672,0.029243,0.006966,-0.647804,-0.003172,0.021267,0.078502,-0.025266,0.136697,0.075594
1403636581713555456,4.697067,-1.778847,0.959285,0.571850,-0.152473,-0.799280,-0.104454,0.030036,0.005882,-0.652048,-0.003172,0.021267,0.078502,-0.025266,0.136697,0.075594
1403636581718555392,4.697220,-1.778819,0.956015,0.571692,-0.152450,-0.799435,-0.104165,0.030876,0.005387,-0.655870,-0.003172,0.021267,0.078502,-0.025266,0.136697,0.075594
1403636581723555584,4.697376,-1.778794,0.952728,0.571570,-0.152532,-0.799552,-0.103822,0.031559,0.004937,-0.659157,-0.003172,0.021267,0.078502,-0.025266,0.136697,0.075594
1403636581728555520,4.697535,-1.778771,0.949426,0.571485,-0.152684,-0.799632,-0.103452,0.031950,0.004180,-0.661710,-0.003172,0.021267,0.078502,-0.025266,0.136697,0.075594
1403636581733555456,4.697695,-1.778752,0.946112,0.571422,-0.152873,-0.799689,-0.103077,0.032095,0.003188,-0.663763,-0.003172,0.021267,0.078502,-0.025266,0.136697,0.075594
1403636581738555392,4.697855,-1.778739,0.942790,0.571363,-0.153063,-0.799739,-0.102738,0.032187,0.002153,-0.665065,-0.003172,0.021267,0.078502,-0.025266,0.136697,0.075594
1403636581743555584,4.698017,-1.778730,0.939465,0.571293,-0.153227,-0.799793,-0.102459,0.032541,0.001373,-0.665037,-0.003172,0.021267,0.078502,-0.025266,0.136697,0.075594
1403636581748555520,4.698182,-1.778725,0.936142,0.571208,-0.153349,-0.799857,-0.102254,0.033444,0.000858,-0.664065,-0.003172,0.021267,0.078502,-0.025266,0.136697,0.075594
1403636581753555456,4.698352,-1.778722,0.932825,0.571113,-0.153408,-0.799929,-0.102131,0.034509,0.000080,-0.662784,-0.003172,0.021267,0.078502,-0.025266,0.136697,0.075594
1403636581758555392,4.698527,-1.778726,0.929515,0.571008,-0.153392,-0.800014,-0.102073,0.035509,-0.001627,-0.661327,-0.003172,0.021267,0.078502,-0.025266,0.136697,0.075594
1403636581763555584,4.698707,-1.778741,0.926211,0.570896,-0.153313,-0.800113,-0.102045,0.036656,-0.004292,-0.659925,-0.003172,0.021267,0.078502,-0.025266,0.136697,0.075594
1403636581768555520,4.698894,-1.778771,0.922914,0.570799,-0.153182,-0.800213,-0.102002,0.037986,-0.007698,-0.659008,-0.003172,0.021267,0.078502,-0.025266,0.136697,0.075594
1403636581773555456,4.699088,-1.778820,0.919620,0.570725,-0.153001,-0.800310,-0.101924,0.039767,-0.011774,-0.658717,-0.003172,0.021267,0.078502,-0.025266,0.136697,0.075594
1403636581778555392,4.699293,-1.778889,0.916326,0.570665,-0.152781,-0.800410,-0.101804,0.042171,-0.016059,-0.658973,-0.003172,0.021267,0.078502,-0.025266,0.136697,0.075594
1403636581783555584,4.699511,-1.778979,0.913028,0.570609,-0.152543,-0.800518,-0.101629,0.045016,-0.020001,-0.660148,-0.003172,0.021267,0.078502,-0.025266,0.136697,0.075594
1403636581788555264,4.699744,-1.779088,0.909722,0.570551,-0.152308,-0.800634,-0.101395,0.048001,-0.023588,-0.662231,-0.003172,0.021267,0.078502,-0.025266,0.136697,0.075594
1403636581793555456,4.699991,-1.779214,0.906405,0.570483,-0.152097,-0.800760,-0.101099,0.050850,-0.026680,-0.664593,-0.003172,0.021267,0.078502,-0.025266,0.136697,0.075594
1403636581798555648,4.700251,-1.779353,0.903076,0.570398,-0.151936,-0.800897,-0.100734,0.053139,-0.028970,-0.666847,-0.003172,0.021267,0.078502,-0.025266,0.136697,0.075594
1403636581803555584,4.700520,-1.779502,0.899737,0.570303,-0.151832,-0.801037,-0.100311,0.054425,-0.030584,-0.668750,-0.003172,0.021267,0.078502,-0.025266,0.136697,0.075594
1403636581808555520,4.700793,-1.779657,0.896391,0.570206,-0.151776,-0.801175,-0.099848,0.054699,-0.031439,-0.669645,-0.003172,0.021267,0.078502,-0.025266,0.136697,0.075594
1403636581813555456,4.701065,-1.779814,0.893043,0.570114,-0.151750,-0.801305,-0.099369,0.054291,-0.031372,-0.669450,-0.003172,0.021267,0.078502,-0.025266,0.136697,0.075594
1403636581818555648,4.701334,-1.779969,0.889697,0.570035,-0.151731,-0.801421,-0.098916,0.053371,-0.030458,-0.668945,-0.003172,0.021267,0.078502,-0.025266,0.136697,0.075594
1403636581823555584,4.701598,-1.780117,0.886354,0.569957,-0.151709,-0.801528,-0.098531,0.052048,-0.028987,-0.668467,-0.003172,0.021267,0.078502,-0.025266,0.136697,0.075594
1403636581828555520,4.701854,-1.780258,0.883012,0.569859,-0.151686,-0.801640,-0.098227,0.050560,-0.027214,-0.668164,-0.003172,0.021267,0.078502,-0.025266,0.136697,0.075594
1403636581833555456,4.702104,-1.780389,0.879671,0.569734,-0.151660,-0.801761,-0.098004,0.049348,-0.025449,-0.668351,-0.003172,0.021267,0.078502,-0.025266,0.136697,0.075594
1403636581838555648,4.702350,-1.780513,0.876329,0.569592,-0.151640,-0.801883,-0.097859,0.048841,-0.024161,-0.668606,-0.003172,0.021267,0.078502,-0.025266,0.136697,0.075594
1403636581843555328,4.702594,-1.780632,0.872986,0.569430,-0.151644,-0.802007,-0.097784,0.049117,-0.023379,-0.668616,-0.003172,0.021267,0.078502,-0.025266,0.136697,0.075594
1403636581848555520,4.702842,-1.780749,0.869643,0.569243,-0.151676,-0.802137,-0.097761,0.049835,-0.023463,-0.668570,-0.003172,0.021267,0.078502,-0.025266,0.136697,0.075594
1403636581853555456,4.703093,-1.780870,0.866300,0.569034,-0.151734,-0.802274,-0.097763,0.050467,-0.024914,-0.668548,-0.003172,0.021267,0.078502,-0.025266,0.136697,0.075594
1403636581858555648,4.703346,-1.781002,0.862957,0.568795,-0.151802,-0.802431,-0.097759,0.050710,-0.027965,-0.668417,-0.003172,0.021267,0.078502,-0.025266,0.136697,0.075594
1403636581863555328,4.703599,-1.781153,0.859616,0.568527,-0.151869,-0.802613,-0.097713,0.050632,-0.032397,-0.667968,-0.003172,0.021267,0.078502,-0.025266,0.136697,0.075594
1403636581868555520,4.703852,-1.781328,0.856279,0.568248,-0.151944,-0.802812,-0.097589,0.050582,-0.037395,-0.667026,-0.003172,0.021267,0.078502,-0.025266,0.136697,0.075594
1403636581873555456,4.704105,-1.781527,0.852948,0.567958,-0.152034,-0.803026,-0.097378,0.050640,-0.042209,-0.665256,-0.003172,0.021267,0.078502,-0.025266,0.136697,0.075594
1403636581878555648,4.704358,-1.781748,0.849628,0.567661,-0.152138,-0.803252,-0.097082,0.050564,-0.046155,-0.662942,-0.003172,0.021267,0.078502,-0.025266,0.136697,0.075594
1403636581883555328,4.702328,-1.776740,0.842506,0.567380,-0.152242,-0.803458,-0.096731,0.044025,-0.030191,-0.677912,-0.003172,0.021267,0.078502,-0.025266,0.136698,0.075596
1403636581888555520,4.702547,-1.776897,0.839123,0.567071,-0.152376,-0.803701,-0.096318,0.043518,-0.032420,-0.675276,-0.003172,0.021267,0.078502,-0.025266,0.136698,0.075596
1403636581893555456,4.702762,-1.777063,0.835754,0.566736,-0.152512,-0.803964,-0.095884,0.042784,-0.033909,-0.672433,-0.003172,0.021267,0.078502,-0.025266,0.136698,0.075596
1403636581898555392,4.702975,-1.777234,0.832399,0.566381,-0.152650,-0.804239,-0.095449,0.042129,-0.034516,-0.669628,-0.003172,0.021267,0.078502,-0.025266,0.136698,0.075596
1403636581903555328,4.703184,-1.777406,0.829058,0.566012,-0.152798,-0.804521,-0.095031,0.041711,-0.034409,-0.666785,-0.003172,0.021267,0.078502,-0.025266,0.136698,0.075596
1403636581908555520,4.703393,-1.777575,0.825731,0.565618,-0.152967,-0.804811,-0.094652,0.041709,-0.033354,-0.663966,-0.003172,0.021267,0.078502,-0.025266,0.136698,0.075596
1403636581913555456,4.703603,-1.777738,0.822418,0.565194,-0.153161,-0.805110,-0.094331,0.042223,-0.031524,-0.661243,-0.003172,0.021267,0.078502,-0.025266,0.136698,0.075596
1403636581918555392,4.703816,-1.777890,0.819118,0.564744,-0.153383,-0.805412,-0.094086,0.043106,-0.029457,-0.658519,-0.003172,0.021267,0.078502,-0.025266,0.136698,0.075596
1403636581923555584,4.704034,-1.778033,0.815833,0.564273,-0.153626,-0.805713,-0.093943,0.044340,-0.027581,-0.655495,-0.003172,0.021267,0.078502,-0.025266,0.136698,0.075596
1403636581928555520,4.704260,-1.778167,0.812564,0.563774,-0.153881,-0.806019,-0.093899,0.045749,-0.026320,-0.652187,-0.003172,0.021267,0.078502,-0.025266,0.136698,0.075596
1403636581933555712,4.704491,-1.778297,0.809311,0.563243,-0.154154,-0.806332,-0.093947,0.046810,-0.025694,-0.649115,-0.003172,0.021267,0.078502,-0.025266,0.136698,0.075596
1403636581938555392,4.704726,-1.778426,0.806073,0.562682,-0.154439,-0.806657,-0.094053,0.047069,-0.025732,-0.646168,-0.003172,0.021267,0.078502,-0.025266,0.136698,0.075596
1403636581943555584,4.704960,-1.778556,0.802850,0.562093,-0.154727,-0.806999,-0.094176,0.046507,-0.026246,-0.643074,-0.003172,0.021267,0.078502,-0.025266,0.136698,0.075596
1403636581948555520,4.705189,-1.778689,0.799643,0.561477,-0.155024,-0.807358,-0.094289,0.045102,-0.027097,-0.639776,-0.003172,0.021267,0.078502,-0.025266,0.136698,0.075596
1403636581953555456,4.705408,-1.778828,0.796453,0.560844,-0.155338,-0.807729,-0.094367,0.042673,-0.028400,-0.635947,-0.003172,0.021267,0.078502,-0.025266,0.136698,0.075596
1403636581958555392,4.705614,-1.778973,0.793285,0.560210,-0.155668,-0.808104,-0.094382,0.039508,-0.029778,-0.631503,-0.003172,0.021267,0.078502,-0.025266,0.136698,0.075596
1403636581963555584,4.705803,-1.779125,0.790138,0.559586,-0.156011,-0.808477,-0.094323,0.036035,-0.030916,-0.626934,-0.003172,0.021267,0.078502,-0.025266,0.136698,0.075596
1403636581968555520,4.705974,-1.779281,0.787016,0.558976,-0.156363,-0.808846,-0.094195,0.032661,-0.031585,-0.622049,-0.003172,0.021267,0.078502,-0.025266,0.136698,0.075596
1403636581973555456,4.706131,-1.779439,0.783918,0.558375,-0.156719,-0.809213,-0.094018,0.029874,-0.031400,-0.616955,-0.003172,0.021267,0.078502,-0.025266,0.136698,0.075596
1403636581978555392,4.706275,-1.779594,0.780846,0.557778,-0.157080,-0.809578,-0.093818,0.027936,-0.030451,-0.612249,-0.003172,0.021267,0.078502,-0.025266,0.136698,0.075596
1403636581983555584,4.706412,-1.779742,0.777796,0.557170,-0.157436,-0.809951,-0.093628,0.026841,-0.029104,-0.607740,-0.003172,0.021267,0.078502,-0.025266,0.136698,0.075596
1403636581988555520,4.706604,-1.779780,0.774537,0.556533,-0.157775,-0.810333,-0.093487,0.028010,-0.025890,-0.607487,-0.003172,0.021267,0.078502,-0.025266,0.136699,0.075597
1403636581993555456,4.706745,-1.779906,0.771511,0.555858,-0.158096,-0.810743,-0.093405,0.028414,-0.024705,-0.602774,-0.003172,0.021267,0.078502,-0.025266,0.136699,0.075597
1403636581998555392,4.706889,-1.780028,0.768509,0.555159,-0.158393,-0.811166,-0.093393,0.029178,-0.023890,-0.597968,-0.003172,0.021267,0.078502,-0.025266,0.136699,0.075597
1403636582003555584,4.707038,-1.780147,0.765532,0.554436,-0.158659,-0.811602,-0.093453,0.030290,-0.023663,-0.592794,-0.003172,0.021267,0.078502,-0.025266,0.136699,0.075597
1403636582008555520,4.707193,-1.780266,0.762582,0.553691,-0.158889,-0.812051,-0.093578,0.031635,-0.024010,-0.587249,-0.003172,0.021267,0.078502,-0.025266,0.136699,0.075597
1403636582013555456,4.707354,-1.780389,0.759661,0.552938,-0.159083,-0.812506,-0.093752,0.032916,-0.025048,-0.581462,-0.003172,0.021267,0.078502,-0.025266,0.136699,0.075597
1403636582018555392,4.707521,-1.780518,0.756769,0.552178,-0.159244,-0.812969,-0.093955,0.034009,-0.026884,-0.575241,-0.003172,0.021267,0.078502,-0.025266,0.136699,0.075597
1403636582023555584,4.707693,-1.780658,0.753909,0.551415,-0.159380,-0.813437,-0.094159,0.034815,-0.029068,-0.568675,-0.003172,0.021267,0.078502,-0.025266,0.136699,0.075597
1403636582028555520,4.707869,-1.780809,0.751083,0.550657,-0.159500,-0.813906,-0.094337,0.035242,-0.031065,-0.561909,-0.003172,0.021267,0.078502,-0.025266,0.136699,0.075597
1403636582033555456,4.708044,-1.780968,0.748291,0.549903,-0.159628,-0.814376,-0.094467,0.035059,-0.032778,-0.554869,-0.003172,0.021267,0.078502,-0.025266,0.136699,0.075597
1403636582038555392,4.708217,-1.781136,0.745536,0.549149,-0.159780,-0.814848,-0.094534,0.034203,-0.034167,-0.547168,-0.003172,0.021267,0.078502,-0.025266,0.136699,0.075597
1403636582043555584,4.708385,-1.781309,0.742821,0.548402,-0.159946,-0.815318,-0.094537,0.032812,-0.035234,-0.538754,-0.003172,0.021267,0.078502,-0.025266,0.136699,0.075597
1403636582048555520,4.708544,-1.781487,0.740150,0.547670,-0.160118,-0.815784,-0.094475,0.030951,-0.036125,-0.529533,-0.003172,0.021267,0.078502,-0.025266,0.136699,0.075597
1403636582053555456,4.708694,-1.781670,0.737528,0.546958,-0.160284,-0.816244,-0.094355,0.028807,-0.036750,-0.519320,-0.003172,0.021267,0.078502,-0.025266,0.136699,0.075597
1403636582058555648,4.708832,-1.781854,0.734958,0.546263,-0.160436,-0.816697,-0.094200,0.026593,-0.036872,-0.508715,-0.003172,0.021267,0.078502,-0.025266,0.136699,0.075597
1403636582063555584,4.708961,-1.782037,0.732441,0.545583,-0.160567,-0.817148,-0.094021,0.024681,-0.036491,-0.498176,-0.003172,0.021267,0.078502,-0.025266,0.136699,0.075597
1403636582068555520,4.709081,-1.782218,0.729976,0.544901,-0.160668,-0.817603,-0.093841,0.023346,-0.035845,-0.487620,-0.003172,0.021267,0.078502,-0.025266,0.136699,0.075597
1403636582073555456,4.709195,-1.782395,0.727564,0.544210,-0.160738,-0.818069,-0.093672,0.022593,-0.034967,-0.477241,-0.003172,0.021267,0.078502,-0.025266,0.136699,0.075597
1403636582078555648,4.709308,-1.782568,0.725203,0.543515,-0.160785,-0.818540,-0.093522,0.022339,-0.034309,-0.467076,-0.003172,0.021267,0.078502,-0.025266,0.136699,0.075597
1403636582083555584,4.709562,-1.782706,0.722749,0.542810,-0.160812,-0.819007,-0.093403,0.025860,-0.033904,-0.459549,-0.003172,0.021267,0.078502,-0.025266,0.136699,0.075597
1403636582088555520,4.709692,-1.782877,0.720477,0.542091,-0.160819,-0.819494,-0.093299,0.026219,-0.034437,-0.449182,-0.003172,0.021267,0.078502,-0.025266,0.136699,0.075597
1403636582093555456,4.709825,-1.783051,0.718257,0.541366,-0.160800,-0.819987,-0.093211,0.026758,-0.035273,-0.438870,-0.003172,0.021267,0.078502,-0.025266,0.136699,0.075597
1403636582098555648,4.709960,-1.783231,0.716090,0.540642,-0.160756,-0.820483,-0.093130,0.027179,-0.036638,-0.428151,-0.003172,0.021267,0.078502,-0.025266,0.136699,0.075597
1403636582103555328,4.710096,-1.783419,0.713977,0.539925,-0.160686,-0.820979,-0.093051,0.027516,-0.038409,-0.416747,-0.003172,0.021267,0.078502,-0.025266,0.136699,0.075597
1403636582108555520,4.710234,-1.783615,0.711923,0.539222,-0.160595,-0.821468,-0.092964,0.027570,-0.040340,-0.404847,-0.003172,0.021267,0.078502,-0.025266,0.136699,0.075597
1403636582113555456,4.710371,-1.783823,0.709931,0.538541,-0.160497,-0.821946,-0.092861,0.027273,-0.042553,-0.392300,-0.003172,0.021267,0.078502,-0.025266,0.136699,0.075597
1403636582118555648,4.710506,-1.784041,0.708002,0.537878,-0.160405,-0.822413,-0.092732,0.026747,-0.044764,-0.379088,-0.003172,0.021267,0.078502,-0.025266,0.136699,0.075597
1403636582123555328,4.710638,-1.784270,0.706140,0.537227,-0.160333,-0.822872,-0.092565,0.025920,-0.046729,-0.365618,-0.003172,0.021267,0.078502,-0.025266,0.136699,0.075597
1403636582128555520,4.710764,-1.784508,0.704347,0.536603,-0.160291,-0.823312,-0.092347,0.024703,-0.048473,-0.351878,-0.003172,0.021267,0.078502,-0.025266,0.136699,0.075597
1403636582133555456,4.710884,-1.784753,0.702623,0.536007,-0.160291,-0.823731,-0.092070,0.023103,-0.049612,-0.337669,-0.003172,0.021267,0.078502,-0.025266,0.136699,0.075597
1403636582138555648,4.711067,-1.785007,0.700949,0.535431,-0.160340,-0.824128,-0.091747,0.024015,-0.050312,-0.323709,-0.003172,0.021267,0.078502,-0.025266,0.136699,0.075598
1403636582143555328,4.711183,-1.785259,0.699368,0.534884,-0.160418,-0.824509,-0.091388,0.022054,-0.050440,-0.308720,-0.003172,0.021267,0.078502,-0.025266,0.136699,0.075598
1403636582148555520,4.711289,-1.785510,0.697863,0.534372,-0.160496,-0.824867,-0.091011,0.020404,-0.050194,-0.293587,-0.003172,0.021267,0.078502,-0.025266,0.136699,0.075598
1403636582153555456,4.711387,-1.785759,0.696432,0.533886,-0.160569,-0.825209,-0.090634,0.019084,-0.049365,-0.278523,-0.003172,0.021267,0.078502,-0.025266,0.136699,0.075598
1403636582158555392,4.711480,-1.786003,0.695077,0.533413,-0.160620,-0.825544,-0.090279,0.017981,-0.048049,-0.263759,-0.003172,0.021267,0.078502,-0.025266,0.136699,0.075598
1403636582163555328,4.711568,-1.786239,0.693794,0.532940,-0.160635,-0.825882,-0.089961,0.017032,-0.046598,-0.249236,-0.003172,0.021267,0.078502,-0.025266,0.136699,0.075598
1403636582168555520,4.711650,-1.786469,0.692584,0.532452,-0.160617,-0.826231,-0.089683,0.016094,-0.045137,-0.234854,-0.003172,0.021267,0.078502,-0.025266,0.136699,0.075598
1403636582173555712,4.711728,-1.786691,0.691446,0.531952,-0.160566,-0.826589,-0.089440,0.014994,-0.043708,-0.220342,-0.003172,0.021267,0.078502,-0.025266,0.136699,0.075598
1403636582178555392,4.711800,-1.786906,0.690382,0.531440,-0.160481,-0.826957,-0.089233,0.013663,-0.042430,-0.205122,-0.003172,0.021267,0.078502,-0.025266,0.136699,0.075598
1403636582183555584,4.711864,-1.787115,0.689397,0.530931,-0.160372,-0.827326,-0.089044,0.012134,-0.041232,-0.189055,-0.003172,0.021267,0.078502,-0.025266,0.136699,0.075598
1403636582188555520,4.711993,-1.787327,0.688489,0.530439,-0.160247,-0.827682,-0.088872,0.013121,-0.040442,-0.172462,-0.003172,0.021267,0.078502,-0.025266,0.136699,0.075598
1403636582193555712,4.712053,-1.787526,0.687669,0.529971,-0.160122,-0.828024,-0.088700,0.010811,-0.039415,-0.155591,-0.003172,0.021267,0.078502,-0.025266,0.136699,0.075598
1403636582198555392,4.712101,-1.787721,0.686933,0.529535,-0.160003,-0.828347,-0.088514,0.008262,-0.038276,-0.138654,-0.003172,0.021267,0.078502,-0.025266,0.136699,0.075598
1403636582203555584,4.712136,-1.787908,0.686283,0.529122,-0.159900,-0.828651,-0.088318,0.005912,-0.036753,-0.121696,-0.003172,0.021267,0.078502,-0.025266,0.136699,0.075598
1403636582208555520,4.712160,-1.788088,0.685716,0.528731,-0.159817,-0.828939,-0.088119,0.003574,-0.034975,-0.104957,-0.003172,0.021267,0.078502,-0.025266,0.136699,0.075598
1403636582213555456,4.712171,-1.788258,0.685233,0.528358,-0.159749,-0.829209,-0.087929,0.001070,-0.033195,-0.088171,-0.003172,0.021267,0.078502,-0.025266,0.136699,0.075598
1403636582218555392,4.712171,-1.788419,0.684835,0.527996,-0.159698,-0.829469,-0.087751,-0.001370,-0.031297,-0.071174,-0.003172,0.021267,0.078502,-0.025266,0.136699,0.075598
1403636582223555584,4.712157,-1.788571,0.684521,0.527652,-0.159662,-0.829713,-0.087578,-0.003965,-0.029510,-0.054174,-0.003172,0.021267,0.078502,-0.025266,0.136699,0.075598
1403636582228555520,4.712130,-1.788714,0.684293,0.527329,-0.159635,-0.829941,-0.087414,-0.006799,-0.027817,-0.036987,-0.003172,0.021267,0.078502,-0.025266,0.136699,0.075598
1403636582233555456,4.712089,-1.788848,0.684152,0.527021,-0.159607,-0.830158,-0.087267,-0.009584,-0.025737,-0.019491,-0.003172,0.021267,0.078502,-0.025266,0.136699,0.075598
1403636582238555392,4.712110,-1.788980,0.684109,0.526729,-0.159571,-0.830361,-0.087143,-0.009587,-0.023843,-0.001381,-0.003172,0.021267,0.078502,-0.025266,0.136700,0.075598
1403636582243555584,4.712054,-1.789094,0.684148,0.526451,-0.159531,-0.830557,-0.087035,-0.012441,-0.021934,0.016725,-0.003172,0.021267,0.078502,-0.025266,0.136700,0.075598
1403636582248555520,4.711985,-1.789199,0.684278,0.526186,-0.159486,-0.830742,-0.086951,-0.015232,-0.020192,0.035295,-0.003172,0.021267,0.078502,-0.025266,0.136700,0.075598
1403636582253555456,4.711902,-1.789297,0.684500,0.525938,-0.159440,-0.830916,-0.086874,-0.018055,-0.018770,0.053796,-0.003172,0.021267,0.078502,-0.025266,0.136700,0.075598
1403636582258555392,4.711804,-1.789388,0.684816,0.525716,-0.159393,-0.831074,-0.086790,-0.020978,-0.017682,0.072355,-0.003172,0.021267,0.078502,-0.025266,0.136700,0.075598
1403636582263555584,4.711693,-1.789475,0.685225,0.525516,-0.159337,-0.831222,-0.086694,-0.023791,-0.016973,0.091484,-0.003172,0.021267,0.078502,-0.025266,0.136700,0.075598
1403636582268555520,4.711567,-1.789559,0.685731,0.525336,-0.159274,-0.831360,-0.086575,-0.026325,-0.016688,0.110921,-0.003172,0.021267,0.078502,-0.025266,0.136700,0.075598
1403636582273555456,4.711430,-1.789642,0.686335,0.525190,-0.159203,-0.831480,-0.086432,-0.028656,-0.016714,0.130431,-0.003172,0.021267,0.078502,-0.025266,0.136700,0.075598
1403636582278555392,4.711281,-1.789726,0.687036,0.525076,-0.159124,-0.831584,-0.086278,-0.030704,-0.016905,0.150017,-0.003172,0.021267,0.078502,-0.025266,0.136700,0.075598
1403636582283555584,4.711124,-1.789811,0.687834,0.524978,-0.159039,-0.831677,-0.086127,-0.032407,-0.016989,0.169156,-0.003172,0.021267,0.078502,-0.025266,0.136700,0.075598
1403636582288555264,4.710958,-1.789896,0.688726,0.524896,-0.158946,-0.831762,-0.085984,-0.033806,-0.016974,0.187874,-0.003172,0.021267,0.078502,-0.025266,0.136700,0.075598
1403636582293555456,4.710786,-1.789981,0.689712,0.524835,-0.158856,-0.831832,-0.085844,-0.034982,-0.017020,0.206415,-0.003172,0.021267,0.078502,-0.025266,0.136700,0.075598
1403636582298555648,4.710609,-1.790066,0.690790,0.524791,-0.158779,-0.831888,-0.085708,-0.035926,-0.017060,0.224859,-0.003172,0.021267,0.078502,-0.025266,0.136700,0.075598
1403636582303555584,4.710427,-1.790152,0.691960,0.524768,-0.158719,-0.831928,-0.085575,-0.036753,-0.017096,0.243108,-0.003172,0.021267,0.078502,-0.025266,0.136700,0.075598
1403636582308555520,4.710241,-1.790237,0.693220,0.524784,-0.158674,-0.831941,-0.085438,-0.037726,-0.017229,0.260952,-0.003172,0.021267,0.078502,-0.025266,0.136700,0.075598
1403636582313555456,4.710050,-1.790324,0.694569,0.524844,-0.158653,-0.831921,-0.085301,-0.038647,-0.017245,0.278454,-0.003172,0.021267,0.078502,-0.025266,0.136700,0.075598
1403636582318555648,4.709855,-1.790409,0.696004,0.524943,-0.158655,-0.831872,-0.085163,-0.039501,-0.017087,0.295404,-0.003172,0.021267,0.078502,-0.025266,0.136700,0.075598
1403636582323555584,4.709655,-1.790495,0.697521,0.525078,-0.158668,-0.831798,-0.085030,-0.040426,-0.017006,0.311809,-0.003172,0.021267,0.078502,-0.025266,0.136700,0.075598
1403636582328555520,4.709451,-1.790580,0.699121,0.525241,-0.158686,-0.831704,-0.084912,-0.041296,-0.016978,0.327923,-0.003172,0.021267,0.078502,-0.025266,0.136700,0.075598
1403636582333555456,4.709242,-1.790665,0.700800,0.525424,-0.158695,-0.831597,-0.084805,-0.042163,-0.017095,0.343647,-0.003172,0.021267,0.078502,-0.025266,0.136700,0.075598
1403636582338555648,4.709029,-1.790752,0.702557,0.525640,-0.158684,-0.831473,-0.084713,-0.042962,-0.017619,0.359196,-0.003172,0.021267,0.078502,-0.025266,0.136700,0.075598
1403636582343555328,4.708813,-1.790841,0.704391,0.525886,-0.158660,-0.831329,-0.084638,-0.043573,-0.018247,0.374561,-0.003172,0.021267,0.078502,-0.025266,0.136700,0.075598
1403636582348555520,4.708593,-1.790933,0.706301,0.526161,-0.158626,-0.831169,-0.084569,-0.044133,-0.018683,0.389236,-0.003172,0.021267,0.078502,-0.025266,0.136700,0.075598
1403636582353555456,4.708371,-1.791028,0.708282,0.526477,-0.158586,-0.830983,-0.084508,-0.044688,-0.019015,0.403308,-0.003172,0.021267,0.078502,-0.025266,0.136700,0.075598
1403636582358555648,4.708147,-1.791124,0.710332,0.526825,-0.158543,-0.830776,-0.084453,-0.045199,-0.019389,0.416796,-0.003172,0.021267,0.078502,-0.025266,0.136700,0.075598
1403636582363555328,4.707920,-1.791222,0.712448,0.527209,-0.158492,-0.830547,-0.084401,-0.045672,-0.019719,0.429588,-0.003172,0.021267,0.078502,-0.025266,0.136700,0.075598
1403636582368555520,4.707690,-1.791321,0.714626,0.527637,-0.158429,-0.830292,-0.084361,-0.046060,-0.019894,0.441638,-0.003172,0.021267,0.078502,-0.025266,0.136700,0.075598
1403636582373555456,4.707460,-1.791420,0.716863,0.528103,-0.158356,-0.830012,-0.084340,-0.046159,-0.019881,0.453000,-0.003172,0.021267,0.078502,-0.025266,0.136700,0.075598
1403636582378555648,4.707230,-1.791518,0.719155,0.528597,-0.158279,-0.829713,-0.084329,-0.045888,-0.019427,0.463705,-0.003172,0.021267,0.078502,-0.025266,0.136700,0.075598
1403636582383555328,4.707001,-1.791613,0.721498,0.529118,-0.158206,-0.829395,-0.084336,-0.045399,-0.018591,0.473585,-0.003172,0.021267,0.078502,-0.025266,0.136700,0.075598
1403636582388555520,4.706776,-1.791704,0.723889,0.529665,-0.158134,-0.829056,-0.084371,-0.044822,-0.017489,0.482965,-0.003172,0.021267,0.078502,-0.025266,0.136700,0.075598
1403636582393555456,4.706553,-1.791787,0.726327,0.530229,-0.158067,-0.828702,-0.084436,-0.044213,-0.016009,0.492093,-0.003172,0.021267,0.078502,-0.025266,0.136700,0.075598
1403636582398555392,4.706334,-1.791863,0.728809,0.530807,-0.157992,-0.828336,-0.084537,-0.043623,-0.014466,0.500847,-0.003172,0.021267,0.078502,-0.025266,0.136700,0.075598
1403636582403555328,4.706117,-1.791932,0.731335,0.531398,-0.157904,-0.827960,-0.084675,-0.043164,-0.013145,0.509347,-0.003172,0.021267,0.078502,-0.025266,0.136700,0.075598
1403636582408555520,4.705901,-1.791995,0.733902,0.532001,-0.157810,-0.827574,-0.084840,-0.042993,-0.011902,0.517633,-0.003172,0.021267,0.078502,-0.025266,0.136700,0.075598
1403636582413555456,4.705686,-1.792051,0.736510,0.532614,-0.157717,-0.827179,-0.085021,-0.043158,-0.010664,0.525469,-0.003172,0.021267,0.078502,-0.025266,0.136700,0.075598
1403636582418555392,4.705469,-1.792103,0.739156,0.533240,-0.157635,-0.826773,-0.085202,-0.043742,-0.009750,0.532790,-0.003172,0.021267,0.078502,-0.025266,0.136700,0.075598
1403636582423555584,4.705247,-1.792150,0.741837,0.533877,-0.157572,-0.826358,-0.085360,-0.044752,-0.009256,0.539837,-0.003172,0.021267,0.078502,-0.025266,0.136700,0.075598
1403636582428555520,4.705020,-1.792195,0.744553,0.534528,-0.157533,-0.825933,-0.085478,-0.046061,-0.008863,0.546336,-0.003172,0.021267,0.078502,-0.025266,0.136700,0.075598
1403636582433555712,4.704786,-1.792239,0.747299,0.535187,-0.157524,-0.825500,-0.085553,-0.047626,-0.008412,0.552074,-0.003172,0.021267,0.078502,-0.025266,0.136700,0.075598
1403636582438555392,4.704544,-1.792279,0.750073,0.535846,-0.157537,-0.825066,-0.085596,-0.049253,-0.007825,0.557590,-0.003172,0.021267,0.078502,-0.025266,0.136700,0.075598
1403636582443555584,4.704294,-1.792316,0.752875,0.536500,-0.157554,-0.824635,-0.085627,-0.050790,-0.006952,0.563078,-0.003172,0.021267,0.078502,-0.025266,0.136700,0.075598
1403636582448555520,4.704036,-1.792348,0.755704,0.537153,-0.157559,-0.824204,-0.085672,-0.052267,-0.005802,0.568639,-0.003172,0.021267,0.078502,-0.025266,0.136700,0.075598
1403636582453555456,4.703772,-1.792373,0.758562,0.537809,-0.157544,-0.823772,-0.085744,-0.053478,-0.004384,0.574492,-0.003172,0.021267,0.078502,-0.025266,0.136700,0.075598
1403636582458555392,4.703502,-1.792391,0.761449,0.538457,-0.157511,-0.823345,-0.085851,-0.054287,-0.002586,0.580382,-0.003172,0.021267,0.078502,-0.025266,0.136700,0.075598
1403636582463555584,4.703230,-1.792398,0.764365,0.539086,-0.157451,-0.822929,-0.086000,-0.054656,-0.000308,0.585902,-0.003172,0.021267,0.078502,-0.025266,0.136700,0.075598
1403636582468555520,4.702957,-1.792394,0.767307,0.539692,-0.157357,-0.822530,-0.086190,-0.054700,0.001987,0.591134,-0.003172,0.021267,0.078502,-0.025266,0.136700,0.075598
1403636582473555456,4.702683,-1.792379,0.770276,0.540272,-0.157239,-0.822147,-0.086428,-0.054557,0.004002,0.596392,-0.003172,0.021267,0.078502,-0.025266,0.136700,0.075598
1403636582478555392,4.702411,-1.792354,0.773271,0.540822,-0.157108,-0.821780,-0.086713,-0.054256,0.006069,0.601581,-0.003172,0.021267,0.078502,-0.025266,0.136700,0.075598
1403636582483555584,4.702141,-1.792319,0.776291,0.541346,-0.156964,-0.821430,-0.087033,-0.054009,0.007972,0.606523,-0.003172,0.021267,0.078502,-0.025266,0.136700,0.075598
1403636582488555520,4.701871,-1.792274,0.779336,0.541845,-0.156802,-0.821095,-0.087379,-0.053828,0.009757,0.611272,-0.003172,0.021267,0.078502,-0.025266,0.136700,0.075598
1403636582493555456,4.701602,-1.792221,0.782403,0.542324,-0.156631,-0.820773,-0.087743,-0.053707,0.011374,0.615820,-0.003172,0.021267,0.078502,-0.025266,0.136700,0.075598
1403636582498555392,4.701334,-1.792162,0.785494,0.542784,-0.156463,-0.820461,-0.088118,-0.053716,0.012261,0.620283,-0.003172,0.021267,0.078502,-0.025266,0.136700,0.075598
1403636582503555584,4.701065,-1.792100,0.788606,0.543230,-0.156303,-0.820155,-0.088499,-0.053751,0.012710,0.624762,-0.003172,0.021267,0.078502,-0.025266,0.136700,0.075598
1403636582508555520,4.700796,-1.792036,0.791740,0.543669,-0.156164,-0.819851,-0.088874,-0.053837,0.013026,0.628927,-0.003172,0.021267,0.078502,-0.025266,0.136700,0.075598
1403636582513555456,4.700527,-1.791971,0.794894,0.544106,-0.156064,-0.819542,-0.089232,-0.054019,0.013003,0.632398,-0.003172,0.021267,0.078502,-0.025266,0.136700,0.075598
1403636582518555392,4.700256,-1.791907,0.798063,0.544534,-0.156008,-0.819232,-0.089560,-0.054391,0.012468,0.635390,-0.003172,0.021267,0.078502,-0.025266,0.136700,0.075598
1403636582523555584,4.699982,-1.791847,0.801247,0.544953,-0.155995,-0.818926,-0.089838,-0.054881,0.011625,0.638164,-0.003172,0.021267,0.078502,-0.025266,0.136700,0.075598
1403636582528555520,4.699707,-1.791790,0.804444,0.545369,-0.156020,-0.818618,-0.090071,-0.055096,0.010893,0.640446,-0.003172,0.021267,0.078502,-0.025266,0.136700,0.075598
1403636582533555456,4.699432,-1.791737,0.807650,0.545781,-0.156070,-0.818312,-0.090275,-0.054967,0.010471,0.642186,-0.003172,0.021267,0.078502,-0.025266,0.136700,0.075598
1403636582538555392,4.699159,-1.791684,0.810865,0.546186,-0.156131,-0.818010,-0.090460,-0.054428,0.010624,0.643609,-0.003172,0.021267,0.078502,-0.025266,0.136700,0.075598
1403636582543555584,4.698889,-1.791629,0.814085,0.546581,-0.156196,-0.817712,-0.090655,-0.053462,0.011280,0.644668,-0.003172,0.021267,0.078502,-0.025266,0.136700,0.075598
1403636582548555520,4.698625,-1.791571,0.817310,0.546959,-0.156255,-0.817423,-0.090878,-0.052340,0.012058,0.645279,-0.003172,0.021267,0.078502,-0.025266,0.136700,0.075598
1403636582553555456,4.698366,-1.791508,0.820537,0.547318,-0.156305,-0.817146,-0.091125,-0.051229,0.012997,0.645527,-0.003172,0.021267,0.078502,-0.025266,0.136700,0.075598
1403636582558555648,4.698112,-1.791440,0.823765,0.547654,-0.156343,-0.816885,-0.091388,-0.050096,0.014218,0.645539,-0.003172,0.021267,0.078502,-0.025266,0.136700,0.075598
1403636582563555584,4.697865,-1.791366,0.826993,0.547965,-0.156366,-0.816641,-0.091663,-0.048966,0.015538,0.645692,-0.003172,0.021267,0.078502,-0.025266,0.136700,0.075598
1403636582568555520,4.697622,-1.791284,0.830223,0.548248,-0.156370,-0.816417,-0.091957,-0.047893,0.017095,0.646431,-0.003172,0.021267,0.078502,-0.025266,0.136700,0.075598
1403636582573555456,4.697385,-1.791194,0.833459,0.548498,-0.156347,-0.816216,-0.092296,-0.046902,0.019069,0.647804,-0.003172,0.021267,0.078502,-0.025266,0.136700,0.075598
1403636582578555648,4.697153,-1.791093,0.836703,0.548718,-0.156284,-0.816035,-0.092693,-0.046113,0.021301,0.649728,-0.003172,0.021267,0.078502,-0.025266,0.136700,0.075598
1403636582583555584,4.696924,-1.790981,0.839957,0.548911,-0.156196,-0.815871,-0.093137,-0.045514,0.023644,0.652102,-0.003172,0.021267,0.078502,-0.025266,0.136700,0.075598
1403636582588555520,4.696697,-1.790857,0.843224,0.549085,-0.156100,-0.815718,-0.093618,-0.045113,0.025736,0.654474,-0.003172,0.021267,0.078502,-0.025266,0.136700,0.075598
1403636582593555456,4.696472,-1.790725,0.846501,0.549244,-0.156006,-0.815572,-0.094110,-0.045053,0.027033,0.656593,-0.003172,0.021267,0.078502,-0.025266,0.136700,0.075598
1403636582598555648,4.696246,-1.790589,0.849790,0.549395,-0.155930,-0.815431,-0.094585,-0.045239,0.027352,0.658723,-0.003172,0.021267,0.078502,-0.025266,0.136700,0.075598
1403636582603555328,4.696020,-1.790454,0.853088,0.549543,-0.155895,-0.815287,-0.095024,-0.045402,0.026963,0.660744,-0.003172,0.021267,0.078502,-0.025266,0.136700,0.075598
1403636582608555520,4.695792,-1.790321,0.856396,0.549699,-0.155910,-0.815134,-0.095402,-0.045426,0.026218,0.662311,-0.003172,0.021267,0.078502,-0.025266,0.136700,0.075598
1403636582613555456,4.695566,-1.790192,0.859710,0.549861,-0.155976,-0.814975,-0.095723,-0.045255,0.025388,0.663424,-0.003172,0.021267,0.078502,-0.025266,0.136700,0.075598
1403636582618555648,4.695341,-1.790066,0.863029,0.550020,-0.156089,-0.814813,-0.096002,-0.044672,0.024899,0.664052,-0.003172,0.021267,0.078502,-0.025266,0.136700,0.075598
1403636582623555328,4.695120,-1.789942,0.866350,0.550183,-0.156245,-0.814645,-0.096246,-0.043631,0.024720,0.664283,-0.003172,0.021267,0.078502,-0.025266,0.136700,0.075598
1403636582628555520,4.694905,-1.789819,0.869671,0.550343,-0.156418,-0.814475,-0.096491,-0.042286,0.024563,0.664107,-0.003172,0.021267,0.078502,-0.025266,0.136700,0.075598
1403636582633555456,4.694698,-1.789696,0.872990,0.550494,-0.156584,-0.814308,-0.096762,-0.040756,0.024537,0.663461,-0.003172,0.021267,0.078502,-0.025266,0.136700,0.075598
1403636582638555648,4.694498,-1.789573,0.876304,0.550639,-0.156735,-0.814147,-0.097055,-0.039134,0.024584,0.662123,-0.003172,0.021267,0.078502,-0.025266,0.136700,0.075598
1403636582643555328,4.694307,-1.789451,0.879610,0.550780,-0.156864,-0.813991,-0.097358,-0.037442,0.024450,0.660300,-0.003172,0.021267,0.078502,-0.025266,0.136700,0.075598
1403636582648555520,4.694124,-1.789329,0.882907,0.550923,-0.156968,-0.813837,-0.097661,-0.035791,0.024120,0.658506,-0.003172,0.021267,0.078502,-0.025266,0.136700,0.075598
1403636582653555456,4.693948,-1.789209,0.886194,0.551070,-0.157059,-0.813686,-0.097945,-0.034272,0.023846,0.656578,-0.003172,0.021267,0.078502,-0.025266,0.136700,0.075598
1403636582658555392,4.693780,-1.789091,0.889472,0.551231,-0.157139,-0.813532,-0.098191,-0.033023,0.023528,0.654416,-0.003172,0.021267,0.078502,-0.025266,0.136700,0.075598
1403636582663555328,4.693617,-1.788974,0.892738,0.551404,-0.157213,-0.813377,-0.098389,-0.032113,0.023287,0.652127,-0.003172,0.021267,0.078502,-0.025266,0.136700,0.075598
1403636582668555520,4.693458,-1.788857,0.895993,0.551580,-0.157286,-0.813224,-0.098542,-0.031471,0.023519,0.649898,-0.003172,0.021267,0.078502,-0.025266,0.136700,0.075598
1403636582673555712,4.693302,-1.788738,0.899238,0.551761,-0.157362,-0.813072,-0.098663,-0.031129,0.024086,0.647847,-0.003172,0.021267,0.078502,-0.025266,0.136700,0.075598
1403636582678555392,4.693146,-1.788615,0.902473,0.551939,-0.157436,-0.812925,-0.098765,-0.031164,0.025004,0.646166,-0.003172,0.021267,0.078502,-0.025266,0.136700,0.075598
1403636582683555584,4.692989,-1.788486,0.905701,0.552111,-0.157507,-0.812784,-0.098857,-0.031726,0.026512,0.645201,-0.003172,0.021267,0.078502,-0.025266,0.136700,0.075598
1403636582688555520,4.692827,-1.788349,0.908926,0.552286,-0.157583,-0.812640,-0.098942,-0.032853,0.028450,0.644899,-0.003172,0.021267,0.078502,-0.025266,0.136700,0.075598
1403636582693555712,4.692659,-1.788201,0.912152,0.552464,-0.157665,-0.812492,-0.099029,-0.034539,0.030510,0.645245,-0.003172,0.021267,0.078502,-0.025266,0.136700,0.075598
1403636582698555392,4.692481,-1.788043,0.915381,0.552646,-0.157760,-0.812339,-0.099120,-0.036743,0.032698,0.646318,-0.003172,0.021267,0.078502,-0.025266,0.136700,0.075598
1403636582703555584,4.692291,-1.787874,0.918616,0.552835,-0.157878,-0.812177,-0.099205,-0.039262,0.035107,0.647783,-0.003172,0.021267,0.078502,-0.025266,0.136700,0.075598
1403636582708555520,4.692088,-1.787692,0.921859,0.553030,-0.158020,-0.812006,-0.099284,-0.041850,0.037620,0.649461,-0.003172,0.021267,0.078502,-0.025266,0.136700,0.075598
1403636582713555456,4.691873,-1.787498,0.925111,0.553236,-0.158199,-0.811822,-0.099361,-0.044280,0.040172,0.651424,-0.003172,0.021267,0.078502,-0.025266,0.136700,0.075598
1403636582718555392,4.691646,-1.787291,0.928373,0.553456,-0.158410,-0.811621,-0.099442,-0.046400,0.042613,0.653353,-0.003172,0.021267,0.078502,-0.025266,0.136700,0.075598
1403636582723555584,4.691410,-1.787072,0.931644,0.553693,-0.158634,-0.811404,-0.099539,-0.047960,0.044754,0.655039,-0.003172,0.021267,0.078502,-0.025266,0.136700,0.075598
1403636582728555520,4.691168,-1.786844,0.934923,0.553944,-0.158865,-0.811175,-0.099643,-0.048749,0.046553,0.656344,-0.003172,0.021267,0.078502,-0.025266,0.136700,0.075598
1403636582733555456,4.690924,-1.786608,0.938205,0.554210,-0.159109,-0.810932,-0.099749,-0.048784,0.047831,0.656694,-0.003172,0.021267,0.078502,-0.025266,0.136700,0.075598
1403636582738555392,4.690682,-1.786367,0.941487,0.554489,-0.159362,-0.810678,-0.099864,-0.048252,0.048506,0.655904,-0.003172,0.021267,0.078502,-0.025266,0.136700,0.075598
1403636582743555584,4.690443,-1.786124,0.944762,0.554772,-0.159614,-0.810420,-0.099989,-0.047321,0.048732,0.654173,-0.003172,0.021267,0.078502,-0.025266,0.136700,0.075598
1403636582748555520,4.690209,-1.785880,0.948026,0.555053,-0.159859,-0.810162,-0.100126,-0.046140,0.048875,0.651521,-0.003172,0.021267,0.078502,-0.025266,0.136700,0.075598
1403636582753555456,4.689982,-1.785635,0.951275,0.555333,-0.160101,-0.809905,-0.100265,-0.044917,0.049020,0.648125,-0.003172,0.021267,0.078502,-0.025266,0.136700,0.075598
1403636582758555392,4.689760,-1.785389,0.954507,0.555619,-0.160353,-0.809643,-0.100394,-0.043749,0.049369,0.644465,-0.003172,0.021267,0.078502,-0.025266,0.136700,0.075598
1403636582763555584,4.689544,-1.785140,0.957720,0.555911,-0.160630,-0.809374,-0.100510,-0.042700,0.050238,0.640819,-0.003172,0.021267,0.078502,-0.025266,0.136700,0.075598
1403636582768555520,4.689332,-1.784886,0.960916,0.556208,-0.160933,-0.809095,-0.100624,-0.042064,0.051292,0.637466,-0.003172,0.021267,0.078502,-0.025266,0.136700,0.075598
1403636582773555456,4.689122,-1.784627,0.964097,0.556526,-0.161255,-0.808798,-0.100749,-0.042066,0.052301,0.634910,-0.003172,0.021267,0.078502,-0.025266,0.136700,0.075598
1403636582778555392,4.688910,-1.784364,0.967267,0.556869,-0.161588,-0.808478,-0.100886,-0.042538,0.053204,0.633374,-0.003172,0.021267,0.078502,-0.025266,0.136700,0.075598
1403636582783555584,4.688696,-1.784096,0.970433,0.557238,-0.161926,-0.808138,-0.101031,-0.043231,0.054030,0.632698,-0.003172,0.021267,0.078502,-0.025266,0.136700,0.075598
1403636582788555264,4.688478,-1.783822,0.973596,0.557632,-0.162261,-0.807779,-0.101188,-0.043965,0.055324,0.632812,-0.003172,0.021267,0.078502,-0.025266,0.136700,0.075598
1403636582793555456,4.688257,-1.783541,0.976763,0.558041,-0.162595,-0.807408,-0.101363,-0.044473,0.057310,0.633751,-0.003172,0.021267,0.078502,-0.025266,0.136700,0.075598
1403636582798555648,4.688034,-1.783248,0.979935,0.558448,-0.162938,-0.807032,-0.101570,-0.044709,0.059715,0.635092,-0.003172,0.021267,0.078502,-0.025266,0.136700,0.075598
1403636582803555584,4.687809,-1.782943,0.983114,0.558841,-0.163298,-0.806655,-0.101819,-0.044959,0.062190,0.636680,-0.003172,0.021267,0.078502,-0.025266,0.136700,0.075598
1403636582808555520,4.687584,-1.782627,0.986304,0.559227,-0.163680,-0.806274,-0.102111,-0.045232,0.064368,0.638988,-0.003172,0.021267,0.078502,-0.025266,0.136700,0.075598
1403636582813555456,4.687357,-1.782301,0.989505,0.559615,-0.164073,-0.805884,-0.102434,-0.045396,0.066167,0.641788,-0.003172,0.021267,0.078502,-0.025266,0.136700,0.075598
1403636582818555648,4.687130,-1.781967,0.992721,0.560018,-0.164465,-0.805480,-0.102782,-0.045671,0.067309,0.644482,-0.003172,0.021267,0.078502,-0.025266,0.136700,0.075598
1403636582823555584,4.686901,-1.781629,0.995949,0.560439,-0.164851,-0.805062,-0.103151,-0.045897,0.067834,0.646833,-0.003172,0.021267,0.078502,-0.025266,0.136700,0.075598
1403636582828555520,4.686672,-1.781289,0.999187,0.560879,-0.165235,-0.804629,-0.103526,-0.045674,0.068047,0.648272,-0.003172,0.021267,0.078502,-0.025266,0.136700,0.075598
1403636582833555456,4.686445,-1.780950,1.002428,0.561346,-0.165623,-0.804175,-0.103906,-0.045041,0.067797,0.648156,-0.003172,0.021267,0.078502,-0.025266,0.136700,0.075598
1403636582838555648,4.692930,-1.778833,1.010158,0.561831,-0.165988,-0.803686,-0.104325,-0.026880,0.076901,0.664883,-0.003172,0.021267,0.078502,-0.025267,0.136703,0.075600
1403636582843555328,4.692800,-1.778454,1.013476,0.562340,-0.166396,-0.803201,-0.104667,-0.025059,0.075044,0.662145,-0.003172,0.021267,0.078502,-0.025267,0.136703,0.075600
1403636582848555520,4.692680,-1.778085,1.016776,0.562868,-0.166803,-0.802708,-0.104974,-0.022716,0.072550,0.658021,-0.003172,0.021267,0.078502,-0.025267,0.136703,0.075600
1403636582853555456,4.692573,-1.777729,1.020053,0.563416,-0.167199,-0.802205,-0.105253,-0.020114,0.069844,0.652772,-0.003172,0.021267,0.078502,-0.025267,0.136703,0.075600
1403636582858555648,4.692480,-1.777386,1.023303,0.563976,-0.167576,-0.801697,-0.105517,-0.017347,0.067377,0.646925,-0.003172,0.021267,0.078502,-0.025267,0.136703,0.075600
1403636582863555328,4.692400,-1.777054,1.026522,0.564542,-0.167935,-0.801189,-0.105787,-0.014531,0.065290,0.640680,-0.003172,0.021267,0.078502,-0.025267,0.136703,0.075600
1403636582868555520,4.692334,-1.776733,1.029709,0.565118,-0.168274,-0.800676,-0.106062,-0.012017,0.063157,0.634186,-0.003172,0.021267,0.078502,-0.025267,0.136703,0.075600
1403636582873555456,4.692278,-1.776423,1.032864,0.565705,-0.168603,-0.800156,-0.106340,-0.010029,0.060835,0.627808,-0.003172,0.021267,0.078502,-0.025267,0.136703,0.075600
1403636582878555648,4.692232,-1.776124,1.035987,0.566304,-0.168931,-0.799627,-0.106608,-0.008548,0.058520,0.621650,-0.003172,0.021267,0.078502,-0.025267,0.136703,0.075600
1403636582883555328,4.692192,-1.775837,1.039080,0.566925,-0.169255,-0.799087,-0.106852,-0.007551,0.056266,0.615476,-0.003172,0.021267,0.078502,-0.025267,0.136703,0.075600
1403636582888555520,4.692160,-1.775509,1.042205,0.567560,-0.169574,-0.798535,-0.107064,-0.006683,0.056421,0.611790,-0.003172,0.021267,0.078502,-0.025267,0.136703,0.075600
1403636582893555456,4.692128,-1.775229,1.045249,0.568212,-0.169901,-0.797979,-0.107237,-0.005843,0.055498,0.606083,-0.003172,0.021267,0.078502,-0.025267,0.136703,0.075600
1403636582898555392,4.692101,-1.774952,1.048266,0.568882,-0.170228,-0.797410,-0.107406,-0.004926,0.055259,0.600698,-0.003172,0.021267,0.078502,-0.025267,0.136703,0.075600
1403636582903555328,4.692079,-1.774676,1.051258,0.569557,-0.170538,-0.796836,-0.107598,-0.004072,0.055259,0.595899,-0.003172,0.021267,0.078502,-0.025267,0.136703,0.075600
1403636582908555520,4.692061,-1.774399,1.054226,0.570226,-0.170805,-0.796269,-0.107832,-0.003229,0.055395,0.591308,-0.003172,0.021267,0.078502,-0.025267,0.136703,0.075600
1403636582913555456,4.692047,-1.774122,1.057170,0.570885,-0.171008,-0.795716,-0.108110,-0.002402,0.055580,0.586223,-0.003172,0.021267,0.078502,-0.025267,0.136703,0.075600
1403636582918555392,4.692036,-1.773844,1.060086,0.571534,-0.171147,-0.795178,-0.108418,-0.001694,0.055515,0.580508,-0.003172,0.021267,0.078502,-0.025267,0.136703,0.075600
1403636582923555584,4.692030,-1.773568,1.062974,0.572171,-0.171235,-0.794658,-0.108742,-0.000867,0.054896,0.574436,-0.003172,0.021267,0.078502,-0.025267,0.136703,0.075600
1403636582928555520,4.692028,-1.773297,1.065830,0.572803,-0.171282,-0.794149,-0.109061,0.000171,0.053503,0.567940,-0.003172,0.021267,0.078502,-0.025267,0.136703,0.075600
1403636582933555712,4.692035,-1.772994,1.068695,0.573446,-0.171300,-0.793634,-0.109365,0.001379,0.053092,0.562717,-0.003172,0.021267,0.078502,-0.025267,0.136704,0.075600
1403636582938555392,4.692045,-1.772735,1.071489,0.574108,-0.171316,-0.793116,-0.109628,0.002631,0.050464,0.554676,-0.003172,0.021267,0.078502,-0.025267,0.136704,0.075600
1403636582943555584,4.692062,-1.772489,1.074239,0.574774,-0.171335,-0.792599,-0.109852,0.004041,0.047779,0.545370,-0.003172,0.021267,0.078502,-0.025267,0.136704,0.075600
1403636582948555520,4.692086,-1.772257,1.076940,0.575448,-0.171348,-0.792080,-0.110052,0.005642,0.045142,0.535010,-0.003172,0.021267,0.078502,-0.025267,0.136704,0.075600
1403636582953555456,4.692118,-1.772038,1.079587,0.576125,-0.171360,-0.791558,-0.110246,0.007355,0.042636,0.523777,-0.003172,0.021267,0.078502,-0.025267,0.136704,0.075600
1403636582958555392,4.692159,-1.771830,1.082176,0.576796,-0.171383,-0.791038,-0.110444,0.009028,0.040243,0.511866,-0.003172,0.021267,0.078502,-0.025267,0.136704,0.075600
1403636582963555584,4.692208,-1.771635,1.084704,0.577467,-0.171429,-0.790509,-0.110654,0.010513,0.037804,0.499237,-0.003172,0.021267,0.078502,-0.025267,0.136704,0.075600
1403636582968555520,4.692264,-1.771453,1.087167,0.578144,-0.171500,-0.789969,-0.110874,0.011701,0.035218,0.486135,-0.003172,0.021267,0.078502,-0.025267,0.136704,0.075600
1403636582973555456,4.692325,-1.771283,1.089565,0.578822,-0.171594,-0.789421,-0.111091,0.012828,0.032791,0.472860,-0.003172,0.021267,0.078502,-0.025267,0.136704,0.075600
1403636582978555392,4.692392,-1.771124,1.091895,0.579503,-0.171706,-0.788867,-0.111304,0.013973,0.030843,0.459303,-0.003172,0.021267,0.078502,-0.025267,0.136704,0.075600
1403636582983555584,4.692465,-1.770973,1.094158,0.580185,-0.171818,-0.788311,-0.111526,0.015256,0.029356,0.445843,-0.003172,0.021267,0.078502,-0.025267,0.136704,0.075600
1403636582988555520,4.692547,-1.770774,1.096400,0.580854,-0.171912,-0.787758,-0.111774,0.016653,0.030248,0.434079,-0.003172,0.021267,0.078502,-0.025267,0.136704,0.075600
1403636582993555456,4.692633,-1.770625,1.098536,0.581504,-0.171987,-0.787224,-0.112040,0.017530,0.029426,0.420363,-0.003172,0.021267,0.078502,-0.025267,0.136704,0.075600
1403636582998555392,4.692722,-1.770480,1.100603,0.582123,-0.172027,-0.786719,-0.112318,0.018164,0.028438,0.406521,-0.003172,0.021267,0.078502,-0.025267,0.136704,0.075600
1403636583003555584,4.692815,-1.770341,1.102602,0.582708,-0.172025,-0.786246,-0.112599,0.018937,0.027392,0.392919,-0.003172,0.021267,0.078502,-0.025267,0.136704,0.075600
1403636583008555520,4.692911,-1.770206,1.104533,0.583269,-0.171988,-0.785798,-0.112879,0.019712,0.026405,0.379356,-0.003172,0.021267,0.078502,-0.025267,0.136704,0.075600
1403636583013555456,4.693012,-1.770077,1.106395,0.583818,-0.171916,-0.785367,-0.113157,0.020485,0.025361,0.365546,-0.003172,0.021267,0.078502,-0.025267,0.136704,0.075600
1403636583018555392,4.693116,-1.769953,1.108187,0.584344,-0.171803,-0.784961,-0.113430,0.021205,0.024295,0.351260,-0.003172,0.021267,0.078502,-0.025267,0.136704,0.075600
1403636583023555584,4.693223,-1.769834,1.109905,0.584837,-0.171653,-0.784590,-0.113685,0.021659,0.023314,0.336147,-0.003172,0.021267,0.078502,-0.025267,0.136704,0.075600
1403636583028555520,4.693331,-1.769719,1.111546,0.585296,-0.171476,-0.784253,-0.113916,0.021598,0.022435,0.320120,-0.003172,0.021267,0.078502,-0.025267,0.136704,0.075600
1403636583033555456,4.693438,-1.769609,1.113106,0.585718,-0.171284,-0.783951,-0.114117,0.021128,0.021582,0.303731,-0.003172,0.021267,0.078502,-0.025267,0.136704,0.075600
1403636583038555392,4.693542,-1.769454,1.114610,0.586105,-0.171082,-0.783677,-0.114286,0.020463,0.022519,0.288325,-0.003172,0.021267,0.078502,-0.025267,0.136704,0.075600
1403636583043555584,4.693642,-1.769344,1.116012,0.586476,-0.170888,-0.783424,-0.114412,0.019540,0.021471,0.272227,-0.003172,0.021267,0.078502,-0.025267,0.136704,0.075600
1403636583048555520,4.693737,-1.769240,1.117334,0.586843,-0.170716,-0.783174,-0.114501,0.018446,0.020239,0.256805,-0.003172,0.021267,0.078502,-0.025267,0.136704,0.075600
1403636583053555456,4.693826,-1.769142,1.118581,0.587211,-0.170568,-0.782921,-0.114566,0.017512,0.018968,0.242018,-0.003172,0.021267,0.078502,-0.025267,0.136704,0.075600
1403636583058555648,4.693912,-1.769050,1.119754,0.587575,-0.170443,-0.782669,-0.114608,0.016725,0.017739,0.227083,-0.003172,0.021267,0.078502,-0.025267,0.136704,0.075600
1403636583063555584,4.693994,-1.768964,1.120852,0.587924,-0.170343,-0.782425,-0.114635,0.015902,0.016656,0.211983,-0.003172,0.021267,0.078502,-0.025267,0.136704,0.075600
1403636583068555520,4.694072,-1.768883,1.121874,0.588250,-0.170269,-0.782193,-0.114660,0.015269,0.015890,0.196816,-0.003172,0.021267,0.078502,-0.025267,0.136704,0.075600
1403636583073555456,4.694147,-1.768804,1.122819,0.588535,-0.170211,-0.781986,-0.114690,0.015084,0.015571,0.181443,-0.003172,0.021267,0.078502,-0.025267,0.136704,0.075600
1403636583078555648,4.694223,-1.768726,1.123688,0.588777,-0.170171,-0.781806,-0.114736,0.015184,0.015662,0.165953,-0.003172,0.021267,0.078502,-0.025267,0.136704,0.075600
1403636583083555584,4.694300,-1.768646,1.124479,0.588981,-0.170148,-0.781646,-0.114810,0.015562,0.016279,0.150585,-0.003172,0.021267,0.078502,-0.025267,0.136704,0.075600
1403636583088555520,4.694375,-1.768516,1.125203,0.589146,-0.170127,-0.781508,-0.114932,0.015948,0.019429,0.135425,-0.003172,0.021267,0.078502,-0.025267,0.136705,0.075600
1403636583093555456,4.694456,-1.768415,1.125840,0.589275,-0.170107,-0.781389,-0.115112,0.016353,0.021016,0.119498,-0.003172,0.021267,0.078502,-0.025267,0.136705,0.075600
1403636583098555648,4.694538,-1.768306,1.126396,0.589370,-0.170076,-0.781287,-0.115361,0.016367,0.022328,0.103014,-0.003172,0.021267,0.078502,-0.025267,0.136705,0.075600
1403636583103555328,4.694619,-1.768193,1.126869,0.589434,-0.170026,-0.781206,-0.115656,0.015984,0.023096,0.086052,-0.003172,0.021267,0.078502,-0.025267,0.136705,0.075600
1403636583108555520,4.694697,-1.768077,1.127255,0.589469,-0.169947,-0.781149,-0.115977,0.015328,0.023374,0.068508,-0.003172,0.021267,0.078502,-0.025267,0.136705,0.075600
1403636583113555456,4.694772,-1.767960,1.127553,0.589485,-0.169842,-0.781110,-0.116314,0.014680,0.023174,0.050603,-0.003172,0.021267,0.078502,-0.025267,0.136705,0.075600
1403636583118555648,4.694844,-1.767846,1.127760,0.589486,-0.169724,-0.781083,-0.116658,0.014276,0.022525,0.032350,-0.003172,0.021267,0.078502,-0.025267,0.136705,0.075600
1403636583123555328,4.694915,-1.767736,1.127875,0.589477,-0.169609,-0.781065,-0.116997,0.014218,0.021555,0.013461,-0.003172,0.021267,0.078502,-0.025267,0.136705,0.075600
1403636583128555520,4.694987,-1.767632,1.127894,0.589460,-0.169508,-0.781053,-0.117310,0.014423,0.020085,-0.005766,-0.003172,0.021267,0.078502,-0.025267,0.136705,0.075600
1403636583133555456,4.695060,-1.767536,1.127817,0.589431,-0.169426,-0.781049,-0.117595,0.014773,0.018286,-0.025018,-0.003172,0.021267,0.078502,-0.025267,0.136705,0.075600
1403636583138555648,4.695128,-1.767408,1.127638,0.589391,-0.169354,-0.781054,-0.117863,0.015013,0.018158,-0.044641,-0.003172,0.021267,0.078502,-0.025267,0.136705,0.075600
1403636583143555328,4.695205,-1.767321,1.127367,0.589339,-0.169302,-0.781066,-0.118122,0.015616,0.016483,-0.063783,-0.003172,0.021267,0.078502,-0.025267,0.136705,0.075600
1403636583148555520,4.695284,-1.767242,1.127002,0.589276,-0.169268,-0.781080,-0.118386,0.016233,0.014999,-0.082119,-0.003172,0.021267,0.078502,-0.025267,0.136705,0.075600
1403636583153555456,4.695367,-1.767170,1.126548,0.589200,-0.169250,-0.781102,-0.118648,0.016806,0.013955,-0.099714,-0.003172,0.021267,0.078502,-0.025267,0.136705,0.075600
1403636583158555392,4.695452,-1.767102,1.126006,0.589108,-0.169246,-0.781132,-0.118914,0.017090,0.013118,-0.116922,-0.003172,0.021267,0.078502,-0.025267,0.136705,0.075600
1403636583163555328,4.695537,-1.767038,1.125380,0.588998,-0.169249,-0.781172,-0.119194,0.016962,0.012390,-0.133420,-0.003172,0.021267,0.078502,-0.025267,0.136705,0.075600
1403636583168555520,4.695620,-1.766978,1.124674,0.588868,-0.169256,-0.781225,-0.119478,0.016260,0.011955,-0.149041,-0.003172,0.021267,0.078502,-0.025267,0.136705,0.075600
1403636583173555712,4.695697,-1.766919,1.123892,0.588726,-0.169247,-0.781291,-0.119761,0.014783,0.011544,-0.163887,-0.003172,0.021267,0.078502,-0.025267,0.136705,0.075600
1403636583178555392,4.695766,-1.766863,1.123037,0.588576,-0.169209,-0.781370,-0.120034,0.012599,0.010631,-0.178105,-0.003172,0.021267,0.078502,-0.025267,0.136705,0.075600
1403636583183555584,4.695823,-1.766814,1.122111,0.588425,-0.169138,-0.781462,-0.120277,0.010085,0.009108,-0.192161,-0.003172,0.021267,0.078502,-0.025267,0.136705,0.075600
1403636583188555520,4.695867,-1.766773,1.121115,0.588281,-0.169030,-0.781563,-0.120473,0.007522,0.007205,-0.206477,-0.003172,0.021267,0.078502,-0.025267,0.136705,0.075600
1403636583193555712,4.695898,-1.766743,1.120046,0.588156,-0.168891,-0.781667,-0.120607,0.005148,0.005063,-0.220948,-0.003172,0.021267,0.078502,-0.025267,0.136705,0.075600
1403636583198555392,4.695919,-1.766723,1.118905,0.588049,-0.168730,-0.781771,-0.120680,0.003196,0.002806,-0.235612,-0.003172,0.021267,0.078502,-0.025267,0.136705,0.075600
1403636583203555584,4.695931,-1.766715,1.117688,0.587941,-0.168549,-0.781888,-0.120700,0.001585,0.000466,-0.250983,-0.003172,0.021267,0.078502,-0.025267,0.136705,0.075600
1403636583208555520,4.695936,-1.766719,1.116394,0.587833,-0.168350,-0.782017,-0.120669,0.000353,-0.002101,-0.266863,-0.003172,0.021267,0.078502,-0.025267,0.136705,0.075600
1403636583213555456,4.695936,-1.766736,1.115019,0.587725,-0.168140,-0.782156,-0.120590,-0.000417,-0.004658,-0.282750,-0.003172,0.021267,0.078502,-0.025267,0.136705,0.075600
1403636583218555392,4.695933,-1.766764,1.113566,0.587609,-0.167924,-0.782307,-0.120475,-0.000713,-0.006694,-0.298638,-0.003172,0.021267,0.078502,-0.025267,0.136705,0.075600
1403636583223555584,4.695930,-1.766801,1.112034,0.587492,-0.167721,-0.782459,-0.120340,-0.000454,-0.007994,-0.314343,-0.003172,0.021267,0.078502,-0.025267,0.136705,0.075600
1403636583228555520,4.695930,-1.766841,1.110424,0.587374,-0.167551,-0.782606,-0.120198,0.000364,-0.008196,-0.329310,-0.003172,0.021267,0.078502,-0.025267,0.136705,0.075600
1403636583233555456,4.695934,-1.766880,1.108743,0.587251,-0.167417,-0.782748,-0.120068,0.001417,-0.007243,-0.343187,-0.003172,0.021267,0.078502,-0.025267,0.136705,0.075600
1403636583238555392,4.695944,-1.766912,1.106995,0.587123,-0.167326,-0.782877,-0.119974,0.002354,-0.005650,-0.356084,-0.003172,0.021267,0.078502,-0.025267,0.136705,0.075600
1403636583243555584,4.695957,-1.766935,1.105185,0.586986,-0.167279,-0.782997,-0.119926,0.002914,-0.003682,-0.367997,-0.003172,0.021267,0.078502,-0.025267,0.136705,0.075600
1403636583248555520,4.695971,-1.766949,1.103318,0.586829,-0.167263,-0.783120,-0.119915,0.002824,-0.001534,-0.378845,-0.003172,0.021267,0.078502,-0.025267,0.136705,0.075600
1403636583253555456,4.695983,-1.766951,1.101399,0.586652,-0.167262,-0.783249,-0.119940,0.002006,0.000538,-0.388743,-0.003172,0.021267,0.078502,-0.025267,0.136705,0.075600
1403636583258555392,4.695990,-1.766944,1.099433,0.586465,-0.167265,-0.783378,-0.120008,0.000694,0.002139,-0.397516,-0.003172,0.021267,0.078502,-0.025267,0.136705,0.075600
1403636583263555584,4.695990,-1.766931,1.097426,0.586282,-0.167263,-0.783501,-0.120104,-0.000868,0.003133,-0.405381,-0.003172,0.021267,0.078502,-0.025267,0.136705,0.075600
1403636583268555520,4.695981,-1.766914,1.095380,0.586106,-0.167249,-0.783621,-0.120203,-0.002633,0.003516,-0.413069,-0.003172,0.021267,0.078502,-0.025267,0.136705,0.075600
1403636583273555456,4.695963,-1.766898,1.093294,0.585939,-0.167219,-0.783738,-0.120295,-0.004562,0.003153,-0.421024,-0.003172,0.021267,0.078502,-0.025267,0.136705,0.075600
1403636583278555392,4.695935,-1.766884,1.091168,0.585783,-0.167170,-0.783855,-0.120362,-0.006482,0.002235,-0.429519,-0.003172,0.021267,0.078502,-0.025267,0.136705,0.075600
1403636583283555584,4.695899,-1.766876,1.088996,0.585631,-0.167113,-0.783977,-0.120384,-0.008136,0.001070,-0.439146,-0.003172,0.021267,0.078502,-0.025267,0.136705,0.075600
1403636583288555264,4.695854,-1.766874,1.086774,0.585484,-0.167062,-0.784105,-0.120334,-0.009597,-0.000193,-0.449834,-0.003172,0.021267,0.078502,-0.025267,0.136705,0.075600
1403636583293555456,4.695803,-1.766877,1.084497,0.585344,-0.167021,-0.784241,-0.120183,-0.010840,-0.001198,-0.460896,-0.003172,0.021267,0.078502,-0.025267,0.136705,0.075600
1403636583298555648,4.695747,-1.766883,1.082164,0.585210,-0.166994,-0.784385,-0.119936,-0.011545,-0.001183,-0.472152,-0.003172,0.021267,0.078502,-0.025267,0.136705,0.075600
1403636583303555584,4.695689,-1.766886,1.079775,0.585074,-0.166991,-0.784533,-0.119634,-0.011691,0.000139,-0.483501,-0.003172,0.021267,0.078502,-0.025267,0.136705,0.075600
1403636583308555520,4.695632,-1.766880,1.077330,0.584936,-0.166999,-0.784683,-0.119315,-0.011390,0.002401,-0.494461,-0.003172,0.021267,0.078502,-0.025267,0.136705,0.075600
1403636583313555456,4.695576,-1.766861,1.074832,0.584799,-0.167007,-0.784831,-0.119008,-0.010710,0.005122,-0.504753,-0.003172,0.021267,0.078502,-0.025267,0.136705,0.075600
1403636583318555648,4.695525,-1.766829,1.072284,0.584659,-0.167008,-0.784975,-0.118738,-0.009811,0.007745,-0.514563,-0.003172,0.021267,0.078502,-0.025267,0.136705,0.075600
1403636583323555584,4.695479,-1.766784,1.069688,0.584515,-0.166983,-0.785122,-0.118507,-0.008507,0.010009,-0.523805,-0.003172,0.021267,0.078502,-0.025267,0.136705,0.075600
1403636583328555520,4.695442,-1.766729,1.067047,0.584363,-0.166932,-0.785274,-0.118327,-0.006531,0.012015,-0.532527,-0.003172,0.021267,0.078502,-0.025267,0.136705,0.075600
1403636583333555456,4.695416,-1.766665,1.064364,0.584202,-0.166856,-0.785427,-0.118209,-0.003913,0.013591,-0.540862,-0.003172,0.021267,0.078502,-0.025267,0.136705,0.075600
1403636583338555648,4.695404,-1.766595,1.061640,0.584034,-0.166754,-0.785582,-0.118159,-0.000890,0.014436,-0.548623,-0.003172,0.021267,0.078502,-0.025267,0.136705,0.075600
1403636583343555328,4.695407,-1.766522,1.058879,0.583852,-0.166638,-0.785739,-0.118178,0.002169,0.014616,-0.555874,-0.003172,0.021267,0.078502,-0.025267,0.136705,0.075600
1403636583348555520,4.695424,-1.766451,1.056082,0.583655,-0.166522,-0.785900,-0.118246,0.004837,0.014152,-0.563058,-0.003172,0.021267,0.078502,-0.025267,0.136705,0.075600
1403636583353555456,4.695453,-1.766382,1.053248,0.583440,-0.166419,-0.786069,-0.118325,0.006581,0.013115,-0.570372,-0.003172,0.021267,0.078502,-0.025267,0.136705,0.075600
1403636583358555648,4.695487,-1.766320,1.050379,0.583213,-0.166342,-0.786248,-0.118369,0.007115,0.011791,-0.577356,-0.003172,0.021267,0.078502,-0.025267,0.136705,0.075600
1403636583363555328,4.695521,-1.766264,1.047476,0.582986,-0.166300,-0.786428,-0.118344,0.006599,0.010454,-0.583660,-0.003172,0.021267,0.078502,-0.025267,0.136705,0.075600
1403636583368555520,4.695551,-1.766215,1.044544,0.582781,-0.166295,-0.786598,-0.118234,0.005334,0.009293,-0.589099,-0.003172,0.021267,0.078502,-0.025267,0.136705,0.075600
1403636583373555456,4.695574,-1.766170,1.041587,0.582610,-0.166315,-0.786750,-0.118038,0.003747,0.008599,-0.593675,-0.003172,0.021267,0.078502,-0.025267,0.136705,0.075600
1403636583378555648,4.695589,-1.766127,1.038608,0.582480,-0.166353,-0.786879,-0.117768,0.002193,0.008710,-0.597999,-0.003172,0.021267,0.078502,-0.025267,0.136705,0.075600
1403636583383555328,4.695596,-1.766082,1.035607,0.582386,-0.166398,-0.786988,-0.117440,0.000881,0.009447,-0.602652,-0.003172,0.021267,0.078502,-0.025267,0.136705,0.075600
1403636583388555520,4.695599,-1.766032,1.032580,0.582311,-0.166433,-0.787091,-0.117072,0.000210,0.010594,-0.607839,-0.003172,0.021267,0.078502,-0.025267,0.136705,0.075600
1403636583393555456,4.695601,-1.765975,1.029526,0.582228,-0.166442,-0.787208,-0.116685,0.000584,0.012196,-0.613880,-0.003172,0.021267,0.078502,-0.025267,0.136705,0.075600
1403636583398555392,4.695608,-1.765909,1.026439,0.582119,-0.166401,-0.787352,-0.116315,0.002032,0.014127,-0.620750,-0.003172,0.021267,0.078502,-0.025267,0.136705,0.075600
1403636583403555328,4.695624,-1.765833,1.023319,0.581976,-0.166300,-0.787525,-0.116007,0.004512,0.016097,-0.627522,-0.003172,0.021267,0.078502,-0.025267,0.136705,0.075600
1403636583408555520,4.695656,-1.765749,1.020166,0.581794,-0.166141,-0.787725,-0.115791,0.008149,0.017628,-0.633670,-0.003172,0.021267,0.078502,-0.025267,0.136705,0.075600
1403636583413555456,4.695708,-1.765659,1.016983,0.581581,-0.165934,-0.787944,-0.115667,0.012641,0.018169,-0.639478,-0.003172,0.021267,0.078502,-0.025267,0.136705,0.075600
1403636583418555392,4.695782,-1.765571,1.013771,0.581358,-0.165683,-0.788167,-0.115625,0.017239,0.017254,-0.645182,-0.003172,0.021267,0.078502,-0.025267,0.136705,0.075600
1403636583423555584,4.695879,-1.765491,1.010531,0.581123,-0.165397,-0.788398,-0.115645,0.021443,0.014800,-0.650846,-0.003172,0.021267,0.078502,-0.025267,0.136705,0.075600
1403636583428555520,4.695995,-1.765426,1.007263,0.580867,-0.165097,-0.788644,-0.115685,0.024847,0.011200,-0.656490,-0.003172,0.021267,0.078502,-0.025267,0.136705,0.075600
1403636583433555712,4.696124,-1.765380,1.003968,0.580600,-0.164791,-0.788902,-0.115704,0.027034,0.006971,-0.661551,-0.003172,0.021267,0.078502,-0.025267,0.136705,0.075600
1403636583438555392,4.696263,-1.765356,1.000650,0.580324,-0.164482,-0.789173,-0.115675,0.028240,0.002929,-0.665430,-0.003172,0.021267,0.078502,-0.025267,0.136705,0.075600
1403636583443555584,4.696405,-1.765349,0.997316,0.580040,-0.164186,-0.789458,-0.115586,0.028652,-0.000181,-0.668235,-0.003172,0.021267,0.078502,-0.025267,0.136705,0.075600
1403636583448555520,4.696546,-1.765354,0.993971,0.579765,-0.163923,-0.789738,-0.115423,0.027953,-0.002087,-0.669877,-0.003172,0.021267,0.078502,-0.025267,0.136705,0.075600
1403636583453555456,4.696681,-1.765367,0.990620,0.579522,-0.163713,-0.789996,-0.115172,0.026086,-0.003089,-0.670358,-0.003172,0.021267,0.078502,-0.025267,0.136705,0.075600
1403636583458555392,4.696805,-1.765384,0.987269,0.579312,-0.163552,-0.790233,-0.114838,0.023387,-0.003594,-0.670212,-0.003172,0.021267,0.078502,-0.025267,0.136705,0.075600
1403636583463555584,4.696914,-1.765402,0.983918,0.579130,-0.163424,-0.790449,-0.114449,0.020318,-0.003637,-0.670010,-0.003172,0.021267,0.078502,-0.025267,0.136705,0.075600
1403636583468555520,4.697009,-1.765419,0.980568,0.578977,-0.163322,-0.790642,-0.114036,0.017447,-0.003282,-0.669989,-0.003172,0.021267,0.078502,-0.025267,0.136705,0.075600
1403636583473555456,4.697091,-1.765434,0.977217,0.578840,-0.163237,-0.790819,-0.113623,0.015282,-0.002474,-0.670330,-0.003172,0.021267,0.078502,-0.025267,0.136705,0.075600
1403636583478555392,4.697165,-1.765443,0.973863,0.578698,-0.163159,-0.790995,-0.113236,0.014312,-0.001182,-0.671604,-0.003172,0.021267,0.078502,-0.025267,0.136705,0.075600
1403636583483555584,4.697237,-1.765445,0.970499,0.578536,-0.163084,-0.791175,-0.112916,0.014761,0.000428,-0.673851,-0.003172,0.021267,0.078502,-0.025267,0.136705,0.075600
1403636583488555520,4.697315,-1.765438,0.967122,0.578342,-0.163014,-0.791364,-0.112686,0.016373,0.002195,-0.676866,-0.003172,0.021267,0.078502,-0.025267,0.136705,0.075600
1403636583493555456,4.697403,-1.765423,0.963729,0.578106,-0.162943,-0.791570,-0.112558,0.018895,0.003865,-0.680430,-0.003172,0.021267,0.078502,-0.025267,0.136705,0.075600
1403636583498555392,4.697505,-1.765401,0.960318,0.577827,-0.162858,-0.791793,-0.112543,0.021870,0.005074,-0.684002,-0.003172,0.021267,0.078502,-0.025267,0.136705,0.075600
1403636583503555584,4.697622,-1.765374,0.956890,0.577506,-0.162743,-0.792038,-0.112635,0.024949,0.005806,-0.687145,-0.003172,0.021267,0.078502,-0.025267,0.136705,0.075600
1403636583508555520,4.697755,-1.765343,0.953448,0.577146,-0.162594,-0.792304,-0.112821,0.028031,0.006251,-0.689548,-0.003172,0.021267,0.078502,-0.025267,0.136705,0.075600
1403636583513555456,4.697902,-1.765312,0.949996,0.576768,-0.162420,-0.792581,-0.113061,0.030803,0.006289,-0.691199,-0.003172,0.021267,0.078502,-0.025267,0.136705,0.075600
1403636583518555392,4.698062,-1.765281,0.946538,0.576388,-0.162227,-0.792861,-0.113314,0.033138,0.005988,-0.692061,-0.003172,0.021267,0.078502,-0.025267,0.136705,0.075600
1403636583523555584,4.698232,-1.765253,0.943077,0.576012,-0.162022,-0.793143,-0.113548,0.034838,0.005519,-0.692366,-0.003172,0.021267,0.078502,-0.025267,0.136705,0.075600
1403636583528555520,4.698408,-1.765227,0.939615,0.575637,-0.161817,-0.793430,-0.113736,0.035623,0.004840,-0.692624,-0.003172,0.021267,0.078502,-0.025267,0.136705,0.075600
1403636583533555456,4.698585,-1.765205,0.936151,0.575267,-0.161623,-0.793722,-0.113849,0.035463,0.003904,-0.692816,-0.003172,0.021267,0.078502,-0.025267,0.136705,0.075600
1403636583538555392,4.698760,-1.765188,0.932687,0.574901,-0.161454,-0.794019,-0.113868,0.034404,0.002833,-0.692926,-0.003172,0.021267,0.078502,-0.025267,0.136705,0.075600
1403636583543555584,4.698928,-1.765176,0.929222,0.574537,-0.161319,-0.794319,-0.113807,0.032636,0.002041,-0.693145,-0.003172,0.021267,0.078502,-0.025267,0.136705,0.075600
1403636583548555520,4.699085,-1.765167,0.925755,0.574176,-0.161225,-0.794615,-0.113696,0.030218,0.001467,-0.693448,-0.003172,0.021267,0.078502,-0.025267,0.136705,0.075600
1403636583553555456,4.699229,-1.765162,0.922287,0.573820,-0.161173,-0.794903,-0.113552,0.027285,0.000684,-0.693802,-0.003172,0.021267,0.078502,-0.025267,0.136705,0.075600
1403636583558555648,4.699357,-1.765160,0.918816,0.573474,-0.161160,-0.795179,-0.113387,0.024251,-0.000057,-0.694481,-0.003172,0.021267,0.078502,-0.025267,0.136705,0.075600
1403636583563555584,4.699472,-1.765162,0.915341,0.573136,-0.161198,-0.795438,-0.113222,0.021452,-0.000629,-0.695810,-0.003172,0.021267,0.078502,-0.025267,0.136705,0.075600
1403636583568555520,4.699573,-1.765166,0.911857,0.572794,-0.161292,-0.795686,-0.113083,0.019156,-0.001030,-0.697619,-0.003172,0.021267,0.078502,-0.025267,0.136705,0.075600
1403636583573555456,4.699665,-1.765171,0.908364,0.572432,-0.161424,-0.795930,-0.113008,0.017484,-0.001000,-0.699626,-0.003172,0.021267,0.078502,-0.025267,0.136705,0.075600
1403636583578555648,4.699750,-1.765175,0.904860,0.572036,-0.161570,-0.796184,-0.113020,0.016582,-0.000626,-0.701751,-0.003172,0.021267,0.078502,-0.025267,0.136705,0.075600
1403636583583555584,4.699833,-1.765177,0.901347,0.571589,-0.161711,-0.796460,-0.113139,0.016481,-0.000107,-0.703675,-0.003172,0.021267,0.078502,-0.025267,0.136705,0.075600
1403636583588555520,4.699917,-1.765176,0.897825,0.571093,-0.161833,-0.796758,-0.113368,0.017105,0.000470,-0.705171,-0.003172,0.021267,0.078502,-0.025267,0.136705,0.075600
1403636583593555456,4.700006,-1.765172,0.894296,0.570559,-0.161916,-0.797078,-0.113693,0.018531,0.001081,-0.706165,-0.003172,0.021267,0.078502,-0.025267,0.136705,0.075600
1403636583598555648,4.700104,-1.765165,0.890765,0.569992,-0.161959,-0.797420,-0.114079,0.020682,0.001660,-0.706216,-0.003172,0.021267,0.078502,-0.025267,0.136705,0.075600
1403636583603555328,4.700213,-1.765157,0.887236,0.569398,-0.161966,-0.797784,-0.114493,0.023022,0.001670,-0.705760,-0.003172,0.021267,0.078502,-0.025267,0.136705,0.075600
1403636583608555520,4.700333,-1.765152,0.883707,0.568784,-0.161957,-0.798168,-0.114881,0.024823,0.000371,-0.705513,-0.003172,0.021267,0.078502,-0.025267,0.136705,0.075600
1403636583613555456,4.700460,-1.765157,0.880181,0.568157,-0.161958,-0.798573,-0.115174,0.025971,-0.002362,-0.705080,-0.003172,0.021267,0.078502,-0.025267,0.136705,0.075600
1403636583618555648,4.700591,-1.765179,0.876658,0.567528,-0.161960,-0.798998,-0.115323,0.026682,-0.006365,-0.704179,-0.003172,0.021267,0.078502,-0.025267,0.136705,0.075600
1403636583623555328,4.700725,-1.765223,0.873140,0.566908,-0.161939,-0.799448,-0.115287,0.026931,-0.011504,-0.702856,-0.003172,0.021267,0.078502,-0.025267,0.136705,0.075600
1403636583628555520,4.700860,-1.765295,0.869630,0.566308,-0.161901,-0.799914,-0.115060,0.026821,-0.017341,-0.701026,-0.003172,0.021267,0.078502,-0.025267,0.136705,0.075600
1403636583633555456,4.700993,-1.765397,0.866131,0.565727,-0.161862,-0.800390,-0.114670,0.026696,-0.023162,-0.698738,-0.003172,0.021267,0.078502,-0.025267,0.136705,0.075600
1403636583638555648,4.701127,-1.765526,0.862643,0.565156,-0.161838,-0.800874,-0.114140,0.026695,-0.028480,-0.696380,-0.003172,0.021267,0.078502,-0.025267,0.136705,0.075600
1403636583643555328,4.701261,-1.765680,0.859167,0.564591,-0.161850,-0.801361,-0.113502,0.026832,-0.033109,-0.693972,-0.003172,0.021267,0.078502,-0.025267,0.136705,0.075600
1403636583648555520,4.701396,-1.765854,0.855704,0.564021,-0.161912,-0.801852,-0.112782,0.027139,-0.036676,-0.691447,-0.003172,0.021267,0.078502,-0.025267,0.136705,0.075600
1403636583653555456,4.701532,-1.766043,0.852253,0.563429,-0.162030,-0.802352,-0.112016,0.027456,-0.038905,-0.688896,-0.003172,0.021267,0.078502,-0.025267,0.136705,0.075600
1403636583658555392,4.701670,-1.766241,0.848816,0.562809,-0.162200,-0.802860,-0.111252,0.027799,-0.039996,-0.685875,-0.003172,0.021267,0.078502,-0.025267,0.136705,0.075600
1403636583663555328,4.701810,-1.766441,0.845396,0.562151,-0.162404,-0.803379,-0.110534,0.028261,-0.040011,-0.682170,-0.003172,0.021267,0.078502,-0.025267,0.136705,0.075600
1403636583668555520,4.701953,-1.766638,0.841996,0.561451,-0.162625,-0.803913,-0.109895,0.028741,-0.039020,-0.677914,-0.003172,0.021267,0.078502,-0.025267,0.136705,0.075600
1403636583673555712,4.702098,-1.766830,0.838617,0.560719,-0.162863,-0.804452,-0.109340,0.029248,-0.037567,-0.673418,-0.003172,0.021267,0.078502,-0.025267,0.136705,0.075600
1403636583678555392,4.702246,-1.767014,0.835262,0.559968,-0.163131,-0.804988,-0.108846,0.029915,-0.036114,-0.668675,-0.003172,0.021267,0.078502,-0.025267,0.136705,0.075600
1403636583683555584,4.702397,-1.767191,0.831931,0.559198,-0.163436,-0.805524,-0.108388,0.030662,-0.034649,-0.663713,-0.003172,0.021267,0.078502,-0.025267,0.136705,0.075600
1403636583688555520,4.701848,-1.763225,0.825758,0.558400,-0.163723,-0.806052,-0.108004,0.029432,-0.020143,-0.671673,-0.003172,0.021267,0.078502,-0.025267,0.136709,0.075602
1403636583693555712,4.701996,-1.763324,0.822412,0.557597,-0.164077,-0.806598,-0.107544,0.029969,-0.019333,-0.666534,-0.003172,0.021267,0.078502,-0.025267,0.136709,0.075602
1403636583698555392,4.702148,-1.763419,0.819093,0.556780,-0.164437,-0.807154,-0.107060,0.030472,-0.018990,-0.661051,-0.003172,0.021267,0.078502,-0.025267,0.136709,0.075602
1403636583703555584,4.702301,-1.763515,0.815801,0.555951,-0.164787,-0.807723,-0.106544,0.030864,-0.019174,-0.655564,-0.003172,0.021267,0.078502,-0.025267,0.136709,0.075602
1403636583708555520,4.702456,-1.763612,0.812537,0.555114,-0.165123,-0.808304,-0.105988,0.031160,-0.019842,-0.650072,-0.003172,0.021267,0.078502,-0.025267,0.136709,0.075602
1403636583713555456,4.702613,-1.763713,0.809301,0.554270,-0.165449,-0.808895,-0.105395,0.031754,-0.020514,-0.644425,-0.003172,0.021267,0.078502,-0.025267,0.136709,0.075602
1403636583718555392,4.702774,-1.763816,0.806092,0.553420,-0.165765,-0.809493,-0.104777,0.032687,-0.020634,-0.639134,-0.003172,0.021267,0.078502,-0.025267,0.136709,0.075602
1403636583723555584,4.702940,-1.763919,0.802909,0.552562,-0.166059,-0.810099,-0.104161,0.033399,-0.020416,-0.634321,-0.003172,0.021267,0.078502,-0.025267,0.136709,0.075602
1403636583728555520,4.703107,-1.764020,0.799749,0.551685,-0.166331,-0.810717,-0.103572,0.033764,-0.020289,-0.629435,-0.003172,0.021267,0.078502,-0.025267,0.136709,0.075602
1403636583733555456,4.703277,-1.764122,0.796615,0.550794,-0.166594,-0.811344,-0.102997,0.033919,-0.020246,-0.624404,-0.003172,0.021267,0.078502,-0.025267,0.136709,0.075602
1403636583738555392,4.703446,-1.764223,0.793505,0.549903,-0.166856,-0.811967,-0.102426,0.033794,-0.020395,-0.619391,-0.003172,0.021267,0.078502,-0.025267,0.136709,0.075602
1403636583743555584,4.703614,-1.764326,0.790421,0.549016,-0.167124,-0.812583,-0.101865,0.033367,-0.020767,-0.614265,-0.003172,0.021267,0.078502,-0.025267,0.136709,0.075602
1403636583748555520,4.703780,-1.764431,0.787363,0.548139,-0.167403,-0.813188,-0.101311,0.033140,-0.021107,-0.608953,-0.003172,0.021267,0.078502,-0.025267,0.136709,0.075602
1403636583753555456,4.703947,-1.764537,0.784332,0.547287,-0.167703,-0.813769,-0.100759,0.033450,-0.021421,-0.603570,-0.003172,0.021267,0.078502,-0.025267,0.136709,0.075602
1403636583758555392,4.704116,-1.764645,0.781328,0.546462,-0.168034,-0.814324,-0.100212,0.034137,-0.021751,-0.598058,-0.003172,0.021267,0.078502,-0.025267,0.136709,0.075602
1403636583763555584,4.704289,-1.764755,0.778351,0.545651,-0.168396,-0.814859,-0.099678,0.035226,-0.022019,-0.592553,-0.003172,0.021267,0.078502,-0.025267,0.136709,0.075602
1403636583768555520,4.704469,-1.764865,0.775402,0.544855,-0.168788,-0.815374,-0.099163,0.036650,-0.022332,-0.587150,-0.003172,0.021267,0.078502,-0.025267,0.136709,0.075602
1403636583773555456,4.704656,-1.764978,0.772480,0.544064,-0.169199,-0.815877,-0.098673,0.038082,-0.022815,-0.581660,-0.003172,0.021267,0.078502,-0.025267,0.136709,0.075602
1403636583778555392,4.704849,-1.765094,0.769586,0.543254,-0.169601,-0.816388,-0.098219,0.039489,-0.023339,-0.575787,-0.003172,0.021267,0.078502,-0.025267,0.136709,0.075602
1403636583783555584,4.705050,-1.765211,0.766723,0.542430,-0.169971,-0.816909,-0.097816,0.040620,-0.023738,-0.569524,-0.003172,0.021267,0.078502,-0.025267,0.136709,0.075602
1403636583788555264,4.705268,-1.765265,0.763724,0.541597,-0.170293,-0.817418,-0.097473,0.041374,-0.022875,-0.566056,-0.003172,0.021267,0.078502,-0.025267,0.136710,0.075603
1403636583793555456,4.705474,-1.765380,0.760911,0.540777,-0.170587,-0.817938,-0.097160,0.041075,-0.023083,-0.559099,-0.003172,0.021267,0.078502,-0.025267,0.136710,0.075603
1403636583798555648,4.705678,-1.765495,0.758133,0.539962,-0.170838,-0.818457,-0.096884,0.040372,-0.022925,-0.552252,-0.003172,0.021267,0.078502,-0.025267,0.136710,0.075603
1403636583803555584,4.705877,-1.765608,0.755388,0.539161,-0.171045,-0.818971,-0.096643,0.039318,-0.022431,-0.545603,-0.003172,0.021267,0.078502,-0.025267,0.136710,0.075603
1403636583808555520,4.706070,-1.765718,0.752677,0.538386,-0.171209,-0.819472,-0.096430,0.038058,-0.021772,-0.538932,-0.003172,0.021267,0.078502,-0.025267,0.136710,0.075603
1403636583813555456,4.706257,-1.765826,0.749998,0.537639,-0.171340,-0.819959,-0.096233,0.036744,-0.021097,-0.532779,-0.003172,0.021267,0.078502,-0.025267,0.136710,0.075603
1403636583818555648,4.706438,-1.765931,0.747348,0.536917,-0.171450,-0.820431,-0.096046,0.035343,-0.020907,-0.527284,-0.003172,0.021267,0.078502,-0.025267,0.136710,0.075603
1403636583823555584,4.706612,-1.766036,0.744724,0.536220,-0.171548,-0.820888,-0.095859,0.034191,-0.021293,-0.522207,-0.003172,0.021267,0.078502,-0.025267,0.136710,0.075603
1403636583828555520,4.706781,-1.766144,0.742125,0.535541,-0.171647,-0.821334,-0.095667,0.033570,-0.021884,-0.517508,-0.003172,0.021267,0.078502,-0.025267,0.136710,0.075603
1403636583833555456,4.706958,-1.766248,0.739523,0.534887,-0.171752,-0.821755,-0.095480,0.033906,-0.022288,-0.514000,-0.003172,0.021267,0.078502,-0.025267,0.136711,0.075603
1403636583838555648,4.707129,-1.766361,0.736965,0.534270,-0.171862,-0.822155,-0.095295,0.034232,-0.022920,-0.509035,-0.003172,0.021267,0.078502,-0.025267,0.136711,0.075603
1403636583843555328,4.707302,-1.766476,0.734434,0.533676,-0.171965,-0.822538,-0.095135,0.035107,-0.023073,-0.503590,-0.003172,0.021267,0.078502,-0.025267,0.136711,0.075603
1403636583848555520,4.707481,-1.766590,0.731930,0.533097,-0.172062,-0.822908,-0.095007,0.036489,-0.022565,-0.497966,-0.003172,0.021267,0.078502,-0.025267,0.136711,0.075603
1403636583853555456,4.707668,-1.766701,0.729454,0.532528,-0.172147,-0.823269,-0.094920,0.038193,-0.021743,-0.492170,-0.003172,0.021267,0.078502,-0.025267,0.136711,0.075603
1403636583858555648,4.707863,-1.766807,0.727010,0.531964,-0.172219,-0.823623,-0.094879,0.039919,-0.020805,-0.485745,-0.003172,0.021267,0.078502,-0.025267,0.136711,0.075603
1403636583863555328,4.708066,-1.766909,0.724599,0.531404,-0.172267,-0.823974,-0.094886,0.041352,-0.019891,-0.478660,-0.003172,0.021267,0.078502,-0.025267,0.136711,0.075603
1403636583868555520,4.708276,-1.767006,0.722224,0.530851,-0.172278,-0.824322,-0.094947,0.042351,-0.019065,-0.471072,-0.003172,0.021267,0.078502,-0.025267,0.136711,0.075603
1403636583873555456,4.708489,-1.767099,0.719890,0.530306,-0.172237,-0.824669,-0.095056,0.043028,-0.018266,-0.462815,-0.003172,0.021267,0.078502,-0.025267,0.136711,0.075603
1403636583878555648,4.708705,-1.767189,0.717597,0.529772,-0.172141,-0.825015,-0.095204,0.043444,-0.017379,-0.454112,-0.003172,0.021267,0.078502,-0.025267,0.136711,0.075603
1403636583883555328,4.708922,-1.767273,0.715349,0.529256,-0.171997,-0.825356,-0.095383,0.043372,-0.016524,-0.445284,-0.003172,0.021267,0.078502,-0.025267,0.136711,0.075603
1403636583888555520,4.709160,-1.767353,0.713124,0.528762,-0.171810,-0.825684,-0.095592,0.043710,-0.016168,-0.436952,-0.003172,0.021267,0.078502,-0.025267,0.136711,0.075603
1403636583893555456,4.709377,-1.767434,0.710962,0.528296,-0.171598,-0.826003,-0.095797,0.042953,-0.016398,-0.427801,-0.003172,0.021267,0.078502,-0.025267,0.136711,0.075603
1403636583898555392,4.709589,-1.767519,0.708846,0.527858,-0.171367,-0.826310,-0.095982,0.041935,-0.017367,-0.418655,-0.003172,0.021267,0.078502,-0.025267,0.136711,0.075603
1403636583903555328,4.709796,-1.767610,0.706776,0.527451,-0.171124,-0.826603,-0.096129,0.040759,-0.019131,-0.409417,-0.003172,0.021267,0.078502,-0.025267,0.136711,0.075603
1403636583908555520,4.709997,-1.767710,0.704752,0.527068,-0.170877,-0.826887,-0.096227,0.039719,-0.021015,-0.400121,-0.003172,0.021267,0.078502,-0.025267,0.136711,0.075603
1403636583913555456,4.710194,-1.767820,0.702775,0.526711,-0.170623,-0.827161,-0.096280,0.038924,-0.022706,-0.390875,-0.003172,0.021267,0.078502,-0.025267,0.136711,0.075603
1403636583918555392,4.710388,-1.767937,0.700843,0.526381,-0.170365,-0.827423,-0.096298,0.038599,-0.024291,-0.381654,-0.003172,0.021267,0.078502,-0.025267,0.136711,0.075603
1403636583923555584,4.710581,-1.768062,0.698958,0.526065,-0.170101,-0.827678,-0.096293,0.038747,-0.025702,-0.372359,-0.003172,0.021267,0.078502,-0.025267,0.136711,0.075603
1403636583928555520,4.710776,-1.768194,0.697120,0.525768,-0.169829,-0.827924,-0.096281,0.039095,-0.027017,-0.362798,-0.003172,0.021267,0.078502,-0.025267,0.136711,0.075603
1403636583933555712,4.710972,-1.768333,0.695331,0.525490,-0.169546,-0.828160,-0.096276,0.039566,-0.028380,-0.352929,-0.003172,0.021267,0.078502,-0.025267,0.136711,0.075603
1403636583938555392,4.711204,-1.768483,0.693584,0.525221,-0.169241,-0.828389,-0.096290,0.041386,-0.029866,-0.342975,-0.003172,0.021267,0.078502,-0.025267,0.136711,0.075603
1403636583943555584,4.711412,-1.768634,0.691895,0.524960,-0.168920,-0.828618,-0.096308,0.041823,-0.030804,-0.332810,-0.003172,0.021267,0.078502,-0.025267,0.136711,0.075603
1403636583948555520,4.711622,-1.768791,0.690256,0.524710,-0.168582,-0.828842,-0.096338,0.042125,-0.031854,-0.322734,-0.003172,0.021267,0.078502,-0.025267,0.136711,0.075603
1403636583953555456,4.711833,-1.768954,0.688668,0.524467,-0.168219,-0.829065,-0.096376,0.042096,-0.033328,-0.312365,-0.003172,0.021267,0.078502,-0.025267,0.136711,0.075603
1403636583958555392,4.712042,-1.769125,0.687133,0.524238,-0.167841,-0.829283,-0.096406,0.041694,-0.035011,-0.301786,-0.003172,0.021267,0.078502,-0.025267,0.136711,0.075603
1403636583963555584,4.712248,-1.769304,0.685651,0.524028,-0.167468,-0.829491,-0.096414,0.040801,-0.036836,-0.291087,-0.003172,0.021267,0.078502,-0.025267,0.136711,0.075603
1403636583968555520,4.712449,-1.769493,0.684224,0.523838,-0.167102,-0.829687,-0.096390,0.039387,-0.038755,-0.279748,-0.003172,0.021267,0.078502,-0.025267,0.136711,0.075603
1403636583973555456,4.712642,-1.769692,0.682854,0.523673,-0.166752,-0.829870,-0.096320,0.037714,-0.040609,-0.268003,-0.003172,0.021267,0.078502,-0.025267,0.136711,0.075603
1403636583978555392,4.712826,-1.769899,0.681544,0.523541,-0.166429,-0.830032,-0.096203,0.035908,-0.042229,-0.256196,-0.003172,0.021267,0.078502,-0.025267,0.136711,0.075603
1403636583983555584,4.713001,-1.770113,0.680293,0.523440,-0.166134,-0.830172,-0.096050,0.034032,-0.043428,-0.243970,-0.003172,0.021267,0.078502,-0.025267,0.136711,0.075603
1403636583988555520,4.713207,-1.770342,0.679112,0.523355,-0.165864,-0.830298,-0.095882,0.033879,-0.044569,-0.231047,-0.003172,0.021267,0.078502,-0.025267,0.136712,0.075603
1403636583993555456,4.713372,-1.770566,0.677988,0.523290,-0.165612,-0.830411,-0.095697,0.032069,-0.044960,-0.218347,-0.003172,0.021267,0.078502,-0.025267,0.136712,0.075603
1403636583998555392,4.713528,-1.770791,0.676929,0.523242,-0.165369,-0.830512,-0.095506,0.030114,-0.045222,-0.205481,-0.003172,0.021267,0.078502,-0.025267,0.136712,0.075603
1403636584003555584,4.713674,-1.771018,0.675934,0.523201,-0.165134,-0.830607,-0.095305,0.028235,-0.045445,-0.192379,-0.003172,0.021267,0.078502,-0.025267,0.136712,0.075603
1403636584008555520,4.713810,-1.771246,0.675005,0.523175,-0.164899,-0.830695,-0.095094,0.026455,-0.045639,-0.179372,-0.003172,0.021267,0.078502,-0.025267,0.136712,0.075603
1403636584013555456,4.713938,-1.771475,0.674140,0.523172,-0.164657,-0.830771,-0.094872,0.024640,-0.046038,-0.166563,-0.003172,0.021267,0.078502,-0.025267,0.136712,0.075603
1403636584018555392,4.714057,-1.771706,0.673339,0.523193,-0.164406,-0.830834,-0.094632,0.022905,-0.046571,-0.153736,-0.003172,0.021267,0.078502,-0.025267,0.136712,0.075603
1403636584023555584,4.714168,-1.771940,0.672602,0.523231,-0.164145,-0.830891,-0.094374,0.021561,-0.047102,-0.141099,-0.003172,0.021267,0.078502,-0.025267,0.136712,0.075603
1403636584028555520,4.714273,-1.772177,0.671928,0.523290,-0.163868,-0.830940,-0.094105,0.020586,-0.047641,-0.128569,-0.003172,0.021267,0.078502,-0.025267,0.136712,0.075603
1403636584033555456,4.714374,-1.772416,0.671316,0.523356,-0.163577,-0.830986,-0.093837,0.019787,-0.047775,-0.115927,-0.003172,0.021267,0.078502,-0.025267,0.136712,0.075603
1403636584038555392,4.714523,-1.772667,0.670790,0.523418,-0.163276,-0.831034,-0.093579,0.020942,-0.047774,-0.102469,-0.003172,0.021267,0.078502,-0.025267,0.136712,0.075603
1403636584043555584,4.714625,-1.772904,0.670309,0.523479,-0.162970,-0.831085,-0.093325,0.019997,-0.046757,-0.089798,-0.003172,0.021267,0.078502,-0.025267,0.136712,0.075603
1403636584048555520,4.714722,-1.773134,0.669893,0.523529,-0.162661,-0.831140,-0.093089,0.018763,-0.045479,-0.076511,-0.003172,0.021267,0.078502,-0.025267,0.136712,0.075603
1403636584053555456,4.714812,-1.773358,0.669545,0.523567,-0.162356,-0.831202,-0.092859,0.017043,-0.043885,-0.062661,-0.003172,0.021267,0.078502,-0.025267,0.136712,0.075603
1403636584058555648,4.714891,-1.773572,0.669267,0.523602,-0.162057,-0.831264,-0.092627,0.014673,-0.042006,-0.048517,-0.003172,0.021267,0.078502,-0.025267,0.136712,0.075603
1403636584063555584,4.714957,-1.773777,0.669062,0.523644,-0.161768,-0.831320,-0.092392,0.011738,-0.039912,-0.033735,-0.003172,0.021267,0.078502,-0.025267,0.136712,0.075603
1403636584068555520,4.715007,-1.773971,0.668931,0.523691,-0.161501,-0.831370,-0.092143,0.008291,-0.037492,-0.018333,-0.003172,0.021267,0.078502,-0.025267,0.136712,0.075603
1403636584073555456,4.715039,-1.774152,0.668879,0.523748,-0.161268,-0.831408,-0.091881,0.004637,-0.034935,-0.002756,-0.003172,0.021267,0.078502,-0.025267,0.136712,0.075603
1403636584078555648,4.715053,-1.774320,0.668904,0.523821,-0.161070,-0.831431,-0.091607,0.001007,-0.032396,0.012813,-0.003172,0.021267,0.078502,-0.025267,0.136712,0.075603
1403636584083555584,4.715050,-1.774475,0.669007,0.523897,-0.160897,-0.831448,-0.091323,-0.002498,-0.029716,0.028249,-0.003172,0.021267,0.078502,-0.025267,0.136712,0.075603
1403636584088555520,4.715083,-1.774631,0.669218,0.523973,-0.160752,-0.831458,-0.091038,-0.003698,-0.027509,0.044579,-0.003172,0.021267,0.078502,-0.025267,0.136713,0.075604
1403636584093555456,4.715057,-1.774762,0.669478,0.524050,-0.160649,-0.831462,-0.090749,-0.006612,-0.025032,0.059157,-0.003172,0.021267,0.078502,-0.025267,0.136713,0.075604
1403636584098555648,4.715017,-1.774881,0.669809,0.524113,-0.160560,-0.831469,-0.090475,-0.009203,-0.022726,0.073410,-0.003172,0.021267,0.078502,-0.025267,0.136713,0.075604
1403636584103555328,4.714965,-1.774990,0.670212,0.524161,-0.160471,-0.831483,-0.090225,-0.011567,-0.020664,0.087516,-0.003172,0.021267,0.078502,-0.025267,0.136713,0.075604
1403636584108555520,4.714902,-1.775089,0.670685,0.524189,-0.160383,-0.831506,-0.090006,-0.013837,-0.018945,0.101752,-0.003172,0.021267,0.078502,-0.025267,0.136713,0.075604
1403636584113555456,4.714827,-1.775180,0.671229,0.524200,-0.160290,-0.831538,-0.089814,-0.015973,-0.017588,0.116163,-0.003172,0.021267,0.078502,-0.025267,0.136713,0.075604
1403636584118555648,4.714743,-1.775265,0.671847,0.524209,-0.160184,-0.831572,-0.089639,-0.017855,-0.016402,0.130653,-0.003172,0.021267,0.078502,-0.025267,0.136713,0.075604
1403636584123555328,4.714649,-1.775345,0.672536,0.524223,-0.160060,-0.831604,-0.089478,-0.019671,-0.015296,0.145234,-0.003172,0.021267,0.078502,-0.025267,0.136713,0.075604
1403636584128555520,4.714546,-1.775418,0.673300,0.524239,-0.159920,-0.831637,-0.089327,-0.021512,-0.014233,0.160110,-0.003172,0.021267,0.078502,-0.025267,0.136713,0.075604
1403636584133555456,4.714434,-1.775487,0.674138,0.524253,-0.159769,-0.831673,-0.089177,-0.023276,-0.013125,0.175101,-0.003172,0.021267,0.078502,-0.025267,0.136713,0.075604
1403636584138555648,4.714313,-1.775550,0.675051,0.524270,-0.159614,-0.831708,-0.089029,-0.025043,-0.012098,0.190176,-0.003172,0.021267,0.078502,-0.025267,0.136713,0.075604
1403636584143555328,4.714183,-1.775608,0.676041,0.524290,-0.159462,-0.831741,-0.088884,-0.026853,-0.011079,0.205891,-0.003172,0.021267,0.078502,-0.025267,0.136713,0.075604
1403636584148555520,4.714045,-1.775660,0.677111,0.524308,-0.159314,-0.831773,-0.088734,-0.028675,-0.009670,0.222004,-0.003172,0.021267,0.078502,-0.025267,0.136713,0.075604
1403636584153555456,4.713897,-1.775703,0.678261,0.524328,-0.159177,-0.831803,-0.088587,-0.030506,-0.007664,0.238000,-0.003172,0.021267,0.078502,-0.025267,0.136713,0.075604
1403636584158555392,4.713740,-1.775736,0.679490,0.524354,-0.159049,-0.831826,-0.088450,-0.032314,-0.005405,0.253663,-0.003172,0.021267,0.078502,-0.025267,0.136713,0.075604
1403636584163555328,4.713574,-1.775757,0.680796,0.524374,-0.158924,-0.831850,-0.088332,-0.034029,-0.003118,0.268975,-0.003172,0.021267,0.078502,-0.025267,0.136713,0.075604
1403636584168555520,4.713399,-1.775767,0.682178,0.524387,-0.158797,-0.831875,-0.088242,-0.035740,-0.001104,0.283799,-0.003172,0.021267,0.078502,-0.025267,0.136713,0.075604
1403636584173555712,4.713216,-1.775769,0.683633,0.524407,-0.158674,-0.831893,-0.088179,-0.037437,0.000408,0.297907,-0.003172,0.021267,0.078502,-0.025267,0.136713,0.075604
1403636584178555392,4.713026,-1.775764,0.685156,0.524433,-0.158553,-0.831904,-0.088136,-0.038814,0.001735,0.311261,-0.003172,0.021267,0.078502,-0.025267,0.136713,0.075604
1403636584183555584,4.712829,-1.775752,0.686743,0.524456,-0.158435,-0.831915,-0.088111,-0.039785,0.002949,0.323703,-0.003172,0.021267,0.078502,-0.025267,0.136713,0.075604
1403636584188555520,4.712629,-1.775735,0.688390,0.524479,-0.158318,-0.831923,-0.088105,-0.040487,0.003948,0.335239,-0.003172,0.021267,0.078502,-0.025267,0.136713,0.075604
1403636584193555712,4.712425,-1.775713,0.690094,0.524499,-0.158209,-0.831930,-0.088117,-0.040809,0.004627,0.346094,-0.003172,0.021267,0.078502,-0.025267,0.136713,0.075604
1403636584198555392,4.712221,-1.775689,0.691850,0.524516,-0.158112,-0.831935,-0.088142,-0.040892,0.004999,0.356409,-0.003172,0.021267,0.078502,-0.025267,0.136713,0.075604
1403636584203555584,4.712016,-1.775664,0.693657,0.524534,-0.158032,-0.831935,-0.088176,-0.041142,0.005137,0.366512,-0.003172,0.021267,0.078502,-0.025267,0.136713,0.075604
1403636584208555520,4.711809,-1.775639,0.695515,0.524557,-0.157974,-0.831928,-0.088210,-0.041545,0.004934,0.376768,-0.003172,0.021267,0.078502,-0.025267,0.136713,0.075604
1403636584213555456,4.711600,-1.775615,0.697426,0.524591,-0.157935,-0.831912,-0.088231,-0.042067,0.004624,0.387284,-0.003172,0.021267,0.078502,-0.025267,0.136713,0.075604
1403636584218555392,4.711388,-1.775592,0.699389,0.524651,-0.157915,-0.831877,-0.088237,-0.042771,0.004475,0.398093,-0.003172,0.021267,0.078502,-0.025267,0.136713,0.075604
1403636584223555584,4.711172,-1.775570,0.701407,0.524739,-0.157918,-0.831822,-0.088227,-0.043528,0.004529,0.409268,-0.003172,0.021267,0.078502,-0.025267,0.136713,0.075604
1403636584228555520,4.710953,-1.775546,0.703482,0.524845,-0.157940,-0.831753,-0.088213,-0.044381,0.004824,0.420551,-0.003172,0.021267,0.078502,-0.025267,0.136713,0.075604
1403636584233555456,4.710728,-1.775521,0.705613,0.524965,-0.157964,-0.831674,-0.088200,-0.045313,0.005154,0.431809,-0.003172,0.021267,0.078502,-0.025267,0.136713,0.075604
1403636584238555392,4.710500,-1.775495,0.707800,0.525095,-0.157979,-0.831590,-0.088188,-0.046231,0.005596,0.443157,-0.003172,0.021267,0.078502,-0.025267,0.136713,0.075604
1403636584243555584,4.710266,-1.775465,0.710043,0.525230,-0.157978,-0.831504,-0.088192,-0.047231,0.006328,0.454111,-0.003172,0.021267,0.078502,-0.025267,0.136713,0.075604
1403636584248555520,4.710027,-1.775431,0.712339,0.525375,-0.157955,-0.831415,-0.088210,-0.048288,0.007153,0.464198,-0.003172,0.021267,0.078502,-0.025267,0.136713,0.075604
1403636584253555456,4.709783,-1.775394,0.714683,0.525529,-0.157910,-0.831324,-0.088232,-0.049335,0.007804,0.473428,-0.003172,0.021267,0.078502,-0.025267,0.136713,0.075604
1403636584258555392,4.709534,-1.775353,0.717071,0.525691,-0.157850,-0.831230,-0.088260,-0.050410,0.008336,0.481774,-0.003172,0.021267,0.078502,-0.025267,0.136713,0.075604
1403636584263555584,4.709279,-1.775311,0.719498,0.525862,-0.157779,-0.831132,-0.088294,-0.051458,0.008745,0.489081,-0.003172,0.021267,0.078502,-0.025267,0.136713,0.075604
1403636584268555520,4.709019,-1.775266,0.721960,0.526039,-0.157703,-0.831031,-0.088328,-0.052383,0.008911,0.495546,-0.003172,0.021267,0.078502,-0.025267,0.136713,0.075604
1403636584273555456,4.708755,-1.775222,0.724452,0.526217,-0.157627,-0.830929,-0.088360,-0.053339,0.008895,0.501230,-0.003172,0.021267,0.078502,-0.025267,0.136713,0.075604
1403636584278555392,4.708485,-1.775178,0.726971,0.526389,-0.157547,-0.830832,-0.088387,-0.054521,0.008817,0.506272,-0.003172,0.021267,0.078502,-0.025267,0.136713,0.075604
1403636584283555584,4.708210,-1.775133,0.729514,0.526561,-0.157465,-0.830736,-0.088421,-0.055589,0.009061,0.511180,-0.003172,0.021267,0.078502,-0.025267,0.136713,0.075604
1403636584288555264,4.707931,-1.775085,0.732083,0.526730,-0.157387,-0.830637,-0.088480,-0.056204,0.010007,0.516371,-0.003172,0.021267,0.078502,-0.025267,0.136713,0.075604
1403636584293555456,4.707649,-1.775032,0.734679,0.526893,-0.157332,-0.830535,-0.088563,-0.056542,0.011440,0.521990,-0.003172,0.021267,0.078502,-0.025267,0.136713,0.075604
1403636584298555648,4.707365,-1.774971,0.737303,0.527060,-0.157317,-0.830422,-0.088660,-0.056980,0.012774,0.527641,-0.003172,0.021267,0.078502,-0.025267,0.136713,0.075604
1403636584303555584,4.707078,-1.774905,0.739955,0.527232,-0.157350,-0.830296,-0.088753,-0.057835,0.013693,0.533244,-0.003172,0.021267,0.078502,-0.025267,0.136713,0.075604
1403636584308555520,4.706786,-1.774835,0.742637,0.527404,-0.157422,-0.830167,-0.088813,-0.059043,0.014362,0.539317,-0.003172,0.021267,0.078502,-0.025267,0.136713,0.075604
1403636584313555456,4.706487,-1.774761,0.745350,0.527580,-0.157515,-0.830035,-0.088839,-0.060331,0.015101,0.545986,-0.003172,0.021267,0.078502,-0.025267,0.136713,0.075604
1403636584318555648,4.706182,-1.774683,0.748098,0.527756,-0.157618,-0.829902,-0.088851,-0.061681,0.016345,0.553293,-0.003172,0.021267,0.078502,-0.025267,0.136713,0.075604
1403636584323555584,4.705871,-1.774596,0.750885,0.527928,-0.157715,-0.829773,-0.088868,-0.063019,0.018438,0.561251,-0.003172,0.021267,0.078502,-0.025267,0.136713,0.075604
